accelerometer_X,accelerometer_Y,accelerometer_Z,id_name,id_file
-4.424484,-10.726024,-1.082179,3,2
0.646435,-0.641646,-1.04866,3,2
-1.623269,-6.603208,0.071826,3,2
-4.323928,-2.671929,3.485958,3,2
-5.228936,-3.557784,-0.038307,3,2
-3.08852,-14.130578,0.215478,3,2
-3.021482,-8.39886,1.312023,3,2
-11.238382,-12.018892,-2.762909,3,2
-0.488417,-9.356541,0.11971,3,2
-7.675811,-17.00362,-1.5466540000000002,3,2
-0.521936,0.708684,-5.0517650000000005,3,2
-3.715801,-5.645528,0.670377,3,2
-1.666364,-9.121908,-2.753332,3,2
-6.354211,-5.717354,-0.579397,3,2
-3.940856,-12.717999,5.971139,3,2
-1.240196,-10.414778,-1.173159,3,2
-10.228029,-14.465767,-1.867477,3,2
-1.043872,-13.603854,-3.600879,3,2
-6.411672,-11.836933,-3.883395,3,2
-10.070012,-15.049952,-13.517663,3,2
-7.929596000000001,-12.253524,-0.263362,3,2
-1.929727,-2.806004,-1.795651,3,2
-4.458003,-6.780378999999999,1.580173,3,2
-4.13718,-4.429273,-1.517924,3,2
1.82917,-9.313444,-0.3304,3,2
-7.350199000000001,-12.670115,-1.4604629999999998,3,2
3.969586,-6.320692,9.255983,3,2
1.7477669999999998,2.920926,7.910442999999999,3,2
2.75812,1.575385,8.896853,3,2
3.332729,2.576161,12.976573,3,2
-2.078167,-4.209007,-1.244985,3,3
-1.877054,-6.943185000000001,-1.915361,3,3
-5.473145,-10.730812,-1.077391,3,3
2.987964,-5.018246,1.647211,3,3
0.675165,-11.60709,-2.662352,3,3
-1.278504,-2.700659,0.924162,3,3
-4.424484,-10.726024,-1.082179,3,3
0.646435,-0.641646,-1.04866,3,3
-1.623269,-6.603208,0.071826,3,3
-4.323928,-2.671929,3.485958,3,3
-5.228936,-3.557784,-0.038307,3,3
-3.08852,-14.130578,0.215478,3,3
-3.021482,-8.39886,1.312023,3,3
-11.238382,-12.018892,-2.762909,3,3
-0.488417,-9.356541,0.11971,3,3
-7.675811,-17.00362,-1.5466540000000002,3,3
-0.521936,0.708684,-5.0517650000000005,3,3
-3.715801,-5.645528,0.670377,3,3
-1.666364,-9.121908,-2.753332,3,3
-6.354211,-5.717354,-0.579397,3,3
-3.940856,-12.717999,5.971139,3,3
-1.240196,-10.414778,-1.173159,3,3
-10.228029,-14.465767,-1.867477,3,3
-1.043872,-13.603854,-3.600879,3,3
-6.411672,-11.836933,-3.883395,3,3
-10.070012,-15.049952,-13.517663,3,3
-7.929596000000001,-12.253524,-0.263362,3,3
-1.929727,-2.806004,-1.795651,3,3
-4.458003,-6.780378999999999,1.580173,3,3
-4.13718,-4.429273,-1.517924,3,3
-1.273715,-5.353435,-0.641646,3,4
-0.794875,-9.160215,-0.1819589999999999,3,4
2.336741,-11.722012,-1.321599,3,4
-6.1578870000000006,-1.489193,-0.54109,3,4
-6.904877000000001,-20.159178,-0.866701,3,4
-1.958457,-8.978256,-4.625597,3,4
0.196325,-2.643199,-0.114922,3,4
-1.728614,-4.9943040000000005,-1.192312,3,4
0.746991,-5.238512999999999,-1.043872,3,4
-1.197101,-3.68707,2.882619,3,4
-0.344765,-9.696517,0.679953,3,4
-5.386954,-16.323667999999998,4.266468,3,4
-3.787627,-8.633492,0.895431,3,4
-2.30801,-13.445837,-2.834735,3,4
-0.545878,-3.653552,6.670246000000001,3,4
2.844312,-10.486604,-1.580173,3,4
2.566584,-10.323798,-1.16837,3,4
2.63841,-7.168239999999999,-0.71826,3,4
3.907337,-4.984728,-3.821146,3,4
0.354342,-9.56723,-5.7700260000000005,3,4
0.9912,-10.290278,-5.099648999999999,3,4
-2.389413,-12.220005,-6.330269,3,4
-1.7860740000000002,-18.737022,6.244078,3,4
4.644751,-11.018116,-1.04866,3,4
-2.269703,-2.782062,2.39899,3,4
1.479617,-9.251195,-0.857124,3,4
5.152323,-11.702858,-2.27928,3,4
1.637634,-22.720974,-10.491392,3,4
-2.346318,-3.270479,1.063026,3,4
-1.685518,-7.580042,-1.623269,3,4
-0.344765,-9.696517,0.679953,3,5
-5.386954,-16.323667999999998,4.266468,3,5
-3.787627,-8.633492,0.895431,3,5
-2.30801,-13.445837,-2.834735,3,5
-0.545878,-3.653552,6.670246000000001,3,5
2.844312,-10.486604,-1.580173,3,5
2.566584,-10.323798,-1.16837,3,5
2.63841,-7.168239999999999,-0.71826,3,5
3.907337,-4.984728,-3.821146,3,5
0.354342,-9.56723,-5.7700260000000005,3,5
0.9912,-10.290278,-5.099648999999999,3,5
-2.389413,-12.220005,-6.330269,3,5
-1.7860740000000002,-18.737022,6.244078,3,5
4.644751,-11.018116,-1.04866,3,5
-2.269703,-2.782062,2.39899,3,5
1.479617,-9.251195,-0.857124,3,5
5.152323,-11.702858,-2.27928,3,5
1.637634,-22.720974,-10.491392,3,5
-2.346318,-3.270479,1.063026,3,5
-1.685518,-7.580042,-1.623269,3,5
-1.80044,-7.465121000000001,-3.069367,3,5
-0.124498,-12.559982000000002,6.7516490000000005,3,5
1.7525560000000002,-17.501614,-3.801992,3,5
2.331953,-9.744401,-7.407660000000001,3,5
3.222596,-8.920795,-3.08852,3,5
-3.457227,-2.715025,0.148441,3,5
2.264915,-9.931149,-4.659116,3,5
0.9912,-10.903194,-8.183380999999999,3,5
2.226608,-8.044516999999999,-2.341529,3,5
-1.647211,-11.851298,6.775591,3,5
-0.842759,-6.119579,-1.61848,3,6
-1.814805,-7.259219,-1.043872,3,6
-0.617704,-6.301539,-1.067814,3,6
-1.685518,-8.403648,0.550666,3,6
2.48997,-15.964537,-0.8379709999999999,3,6
-0.483629,-15.078682,-6.253655,3,6
-2.633622,-17.927782,-5.453991,3,6
-2.312799,-15.825673000000002,9.706094,3,6
-0.6272810000000001,-14.772224,-5.3821650000000005,3,6
2.466028,-6.856992999999999,-4.477157,3,6
-4.67827,-6.397307,-3.993528,3,6
-1.838747,-9.935937,-3.1076740000000003,3,6
0.325611,-8.619126,-3.4428620000000003,3,6
-2.604891,-4.180276,-2.652775,3,6
-2.700659,-13.340492,-3.912125,3,6
1.642422,-8.130708,-8.681376,3,6
2.930503,-8.51857,-2.236184,3,6
-0.943315,-0.943315,0.842759,3,6
-0.057461,-7.536947,-3.112462,3,6
-2.240973,-4.735731,-0.8044520000000001,3,6
0.483629,-8.561666,-3.653552,3,6
8.2169,-11.386824,-0.1005559999999999,3,6
-0.124498,-9.442732,-0.842759,3,6
2.657564,-10.381259,0.665588,3,6
1.383849,-16.093823999999998,-1.479617,3,6
1.771709,-13.642160999999998,-8.920795,3,6
1.024718,-5.295974,-1.484405,3,6
2.628834,-4.697424,-3.892972,3,6
2.422932,-4.544194,1.604115,3,6
-0.229843,-7.383717999999999,-6.809108999999999,3,6
12.133814,-18.703505,-7.508216,3,7
6.588842999999999,-10.568007,-2.60968,3,7
7.996633999999999,-5.918466,-6.646304,3,7
0.2585739999999999,-8.657434,-2.351106,3,7
-1.94888,-5.003881,2.006341,3,7
1.364695,-8.054094000000001,-3.222595,3,7
2.0302830000000003,-13.613431,-2.0302830000000003,3,7
12.411542,-13.881581,-4.386177,3,7
4.879383,-13.110648,-3.5960910000000004,3,7
1.201889,-17.908628,0.004788,3,7
-6.847417,-16.74026,4.13718,3,7
-4.003105000000001,1.249773,10.716447,3,7
3.0502130000000003,-11.482592,-4.683058,3,7
8.532935,-14.571112,-11.492168,3,7
2.1883,-8.987833,-1.273715,3,7
1.101333,-3.648763,0.416591,3,7
4.276045,-9.346964,0.502782,3,7
-3.77805,-3.605668,2.475605,3,7
2.236184,-7.388506,-1.173159,3,7
-4.094085,-1.441309,2.13084,3,7
2.011129,-12.564771,0.8236049999999999,3,7
-0.071826,-13.733141,2.652776,3,7
1.996764,-6.062118,-6.210559,3,7
3.438074,-7.139508999999999,0.292093,3,7
12.650962,1.61848,10.716447,3,7
7.402872,-7.771578999999999,-4.127603,3,7
2.920926,-8.571242,-7.881711999999999,3,7
2.767697,-8.935161,-2.149993,3,7
-1.101333,-13.939042,-0.948104,3,7
1.532289,-6.2153480000000005,-5.928043,3,7
0.766145,-4.788403,-0.981623,3,8
0.02873,-6.545747,-0.6464340000000001,3,8
6.952762,-11.247959,0.344765,3,8
6.895301,-13.982138,-2.504335,3,8
-1.417367,-19.349937,0.177171,3,8
0.320823,-3.715801,-9.653421,3,8
-4.649539,-15.05474,1.192313,3,8
4.242526,-16.539145,-10.836157,3,8
6.789956,-6.947972999999999,-3.007117,3,8
0.933739,-4.606444000000001,-0.512359,3,8
3.2896330000000003,-7.469908999999999,-0.0430959999999999,3,8
-1.6519990000000002,-17.535133,-2.2505490000000004,3,8
-6.320692,-6.196194,1.896208,3,8
-1.331176,-17.956512,-0.632069,3,8
12.133814,-18.703505,-7.508216,3,8
6.588842999999999,-10.568007,-2.60968,3,8
7.996633999999999,-5.918466,-6.646304,3,8
0.2585739999999999,-8.657434,-2.351106,3,8
-1.94888,-5.003881,2.006341,3,8
1.364695,-8.054094000000001,-3.222595,3,8
2.0302830000000003,-13.613431,-2.0302830000000003,3,8
12.411542,-13.881581,-4.386177,3,8
4.879383,-13.110648,-3.5960910000000004,3,8
1.201889,-17.908628,0.004788,3,8
-6.847417,-16.74026,4.13718,3,8
-4.003105000000001,1.249773,10.716447,3,8
3.0502130000000003,-11.482592,-4.683058,3,8
8.532935,-14.571112,-11.492168,3,8
2.1883,-8.987833,-1.273715,3,8
1.101333,-3.648763,0.416591,3,8
1.972822,-5.6982,-0.081403,3,9
0.727837,-6.445191,-1.2162540000000002,3,9
3.696648,-12.248735,1.374272,3,9
1.1300629999999998,-6.368576,-1.235408,3,9
2.394202,-17.520767000000003,0.78051,3,9
1.187524,-4.639962000000001,-2.8491,3,9
1.072602,-12.325351,0.009577,3,9
1.867477,-3.950433,-1.288081,3,9
4.88896,-7.010222,-0.062249,3,9
4.467581,-9.672575,-1.13964,3,9
3.548207,-9.385271,-1.288081,3,9
3.438074,-16.864758,-0.3304,3,9
3.169923,-2.686294,-4.031835,3,9
0.416591,-16.237476,-3.342306,3,9
12.196063,-21.049822,-11.789049,3,9
6.291962,-11.525687,-0.995988,3,9
5.535394,-2.72939,-8.528147,3,9
1.359907,-7.752425,0.641646,3,9
2.853889,-10.012551,-0.411803,3,9
-6.354211,-5.521029,-4.673482,3,9
4.76925,-12.799402,1.297657,3,9
1.685518,-7.747636999999999,-1.556231,3,9
5.133168,-10.261548,-0.8475469999999999,3,9
2.777274,-5.204994,-2.590526,3,9
2.619257,-9.203311,-1.537077,3,9
1.417368,-17.48246,0.234632,3,9
-4.76925,-9.591172,6.277597,3,9
6.56969,3.016694,1.824382,3,9
3.572149,1.891419,7.192182000000001,3,9
3.423709,3.069367,9.504981,3,9
-5.473145,-10.730812,-1.077391,3,10
2.987964,-5.018246,1.647211,3,10
0.675165,-11.60709,-2.662352,3,10
-1.278504,-2.700659,0.924162,3,10
-4.424484,-10.726024,-1.082179,3,10
0.646435,-0.641646,-1.04866,3,10
-1.623269,-6.603208,0.071826,3,10
-4.323928,-2.671929,3.485958,3,10
-5.228936,-3.557784,-0.038307,3,10
-3.08852,-14.130578,0.215478,3,10
-3.021482,-8.39886,1.312023,3,10
-11.238382,-12.018892,-2.762909,3,10
-0.488417,-9.356541,0.11971,3,10
-7.675811,-17.00362,-1.5466540000000002,3,10
-0.521936,0.708684,-5.0517650000000005,3,10
-3.715801,-5.645528,0.670377,3,10
-1.666364,-9.121908,-2.753332,3,10
-6.354211,-5.717354,-0.579397,3,10
-3.940856,-12.717999,5.971139,3,10
-1.240196,-10.414778,-1.173159,3,10
-10.228029,-14.465767,-1.867477,3,10
-1.043872,-13.603854,-3.600879,3,10
-6.411672,-11.836933,-3.883395,3,10
-10.070012,-15.049952,-13.517663,3,10
-7.929596000000001,-12.253524,-0.263362,3,10
-1.929727,-2.806004,-1.795651,3,10
-4.458003,-6.780378999999999,1.580173,3,10
-4.13718,-4.429273,-1.517924,3,10
1.82917,-9.313444,-0.3304,3,10
-7.350199000000001,-12.670115,-1.4604629999999998,3,10
-1.996764,1.393425,2.652776,3,11
-4.189853,-10.275913,1.1300629999999998,3,11
0.8379709999999999,-11.693281,-1.1300629999999998,3,11
-3.122039,-11.985373,-1.393425,3,11
-2.078167,-4.209007,-1.244985,3,11
-1.877054,-6.943185000000001,-1.915361,3,11
-5.473145,-10.730812,-1.077391,3,11
2.987964,-5.018246,1.647211,3,11
0.675165,-11.60709,-2.662352,3,11
-1.278504,-2.700659,0.924162,3,11
-4.424484,-10.726024,-1.082179,3,11
0.646435,-0.641646,-1.04866,3,11
-1.623269,-6.603208,0.071826,3,11
-4.323928,-2.671929,3.485958,3,11
-5.228936,-3.557784,-0.038307,3,11
-3.08852,-14.130578,0.215478,3,11
-3.021482,-8.39886,1.312023,3,11
-11.238382,-12.018892,-2.762909,3,11
-0.488417,-9.356541,0.11971,3,11
-7.675811,-17.00362,-1.5466540000000002,3,11
-0.521936,0.708684,-5.0517650000000005,3,11
-3.715801,-5.645528,0.670377,3,11
-1.666364,-9.121908,-2.753332,3,11
-6.354211,-5.717354,-0.579397,3,11
-3.940856,-12.717999,5.971139,3,11
-1.240196,-10.414778,-1.173159,3,11
-10.228029,-14.465767,-1.867477,3,11
-1.043872,-13.603854,-3.600879,3,11
-6.411672,-11.836933,-3.883395,3,11
-10.070012,-15.049952,-13.517663,3,11
-0.153229,-10.213664,-1.7525560000000002,3,12
0.6272810000000001,-7.627927000000001,-3.270479,3,12
1.177947,-5.415684,-2.059013,3,12
3.466804,-5.406107,-2.633622,3,12
0.057461,-6.445191,-3.069367,3,12
5.88016,-6.900089,-3.509899,3,12
4.774039,-9.251195,-2.600103,3,12
0.766145,-4.089296,-0.833182,3,12
5.865794,-9.840169,-1.23062,3,12
-1.446098,-4.903325,-0.512359,3,12
2.600103,-7.929596000000001,0.5841850000000001,3,12
-1.766921,-5.295974,0.766145,3,12
0.430956,-7.699753,-0.579397,3,12
0.8475469999999999,-9.337387,-3.797204,3,12
-1.8579,-7.623138000000001,9.021352,3,12
0.272939,-11.860875,-2.920926,3,12
2.499547,-7.843405000000001,-3.620033,3,12
-4.76925,-9.648633,-12.382812,3,12
2.475605,-9.993398,-6.62715,3,12
2.748544,-6.9096660000000005,-3.39019,3,12
1.264139,-7.517792999999999,0.493206,3,12
-1.086968,-5.717354,2.499547,3,12
-2.614468,-8.508992999999998,-0.071826,3,12
-1.522712,-16.82645,-2.791639,3,12
4.31914,-13.091495,-0.411803,3,12
0.430956,-15.255854,-5.688623000000001,3,12
5.061342,-14.508862,-22.663513,3,12
2.82037,-9.710882000000002,-3.806781,3,12
2.753332,-11.559206,-10.630256,3,12
0.9912,-8.935161,-0.1723829999999999,3,12
-2.604891,-7.661445,-0.11971,3,13
-1.40779,-13.340492,-3.916914,3,13
-2.255338,-14.398729,-2.801216,3,13
-7.517792999999999,-11.947066,-1.656788,3,13
-1.996764,1.393425,2.652776,3,13
-4.189853,-10.275913,1.1300629999999998,3,13
0.8379709999999999,-11.693281,-1.1300629999999998,3,13
-3.122039,-11.985373,-1.393425,3,13
-2.078167,-4.209007,-1.244985,3,13
-1.877054,-6.943185000000001,-1.915361,3,13
-5.473145,-10.730812,-1.077391,3,13
2.987964,-5.018246,1.647211,3,13
0.675165,-11.60709,-2.662352,3,13
-1.278504,-2.700659,0.924162,3,13
-4.424484,-10.726024,-1.082179,3,13
0.646435,-0.641646,-1.04866,3,13
-1.623269,-6.603208,0.071826,3,13
-4.323928,-2.671929,3.485958,3,13
-5.228936,-3.557784,-0.038307,3,13
-3.08852,-14.130578,0.215478,3,13
-3.021482,-8.39886,1.312023,3,13
-11.238382,-12.018892,-2.762909,3,13
-0.488417,-9.356541,0.11971,3,13
-7.675811,-17.00362,-1.5466540000000002,3,13
-0.521936,0.708684,-5.0517650000000005,3,13
-3.715801,-5.645528,0.670377,3,13
-1.666364,-9.121908,-2.753332,3,13
-6.354211,-5.717354,-0.579397,3,13
-3.940856,-12.717999,5.971139,3,13
-1.240196,-10.414778,-1.173159,3,13
4.697424,-9.074024,-0.866701,3,14
-1.5466540000000002,-1.508347,0.3304,3,14
3.830723,-12.014104,-1.158794,3,14
2.418144,-9.002198,0.8236049999999999,3,14
3.529053,-7.436389999999999,1.905785,3,14
0.986411,-17.3005,-0.3830719999999999,3,14
-4.582502,-7.862558,9.792285,3,14
1.910573,-5.985504,-1.599327,3,14
4.458004,-6.914453999999999,-5.401319,3,14
2.475605,-8.705316999999999,-0.3734949999999999,3,14
-1.120486,-5.803545,2.044648,3,14
-2.39899,-8.451532,4.055778,3,14
5.64074,-8.566454,1.029507,3,14
-0.8283940000000001,-0.483629,10.582372,3,14
4.491523,-7.393294999999999,-1.58975,3,14
4.97994,-10.127473,-14.422671,3,14
1.106121,-7.115567,2.240973,3,14
1.355118,-8.667010000000001,1.479617,3,14
2.149993,-7.474697,5.93762,3,14
8.288725999999999,-10.783484,-3.165135,3,14
-0.991199,-19.416977,4.074930999999999,3,14
7.062895,-8.063671000000001,-0.972046,3,14
0.766145,-4.788403,-0.981623,3,14
0.02873,-6.545747,-0.6464340000000001,3,14
6.952762,-11.247959,0.344765,3,14
6.895301,-13.982138,-2.504335,3,14
-1.417367,-19.349937,0.177171,3,14
0.320823,-3.715801,-9.653421,3,14
-4.649539,-15.05474,1.192313,3,14
4.242526,-16.539145,-10.836157,3,14
-2.269703,-2.782062,2.39899,3,15
1.479617,-9.251195,-0.857124,3,15
5.152323,-11.702858,-2.27928,3,15
1.637634,-22.720974,-10.491392,3,15
-2.346318,-3.270479,1.063026,3,15
-1.685518,-7.580042,-1.623269,3,15
-1.80044,-7.465121000000001,-3.069367,3,15
-0.124498,-12.559982000000002,6.7516490000000005,3,15
1.7525560000000002,-17.501614,-3.801992,3,15
2.331953,-9.744401,-7.407660000000001,3,15
3.222596,-8.920795,-3.08852,3,15
-3.457227,-2.715025,0.148441,3,15
2.264915,-9.931149,-4.659116,3,15
0.9912,-10.903194,-8.183380999999999,3,15
2.226608,-8.044516999999999,-2.341529,3,15
-1.647211,-11.851298,6.775591,3,15
8.39886,-13.771448,-2.566584,3,15
2.494758,-10.328587,-8.690952000000001,3,15
0.8236049999999999,-7.383717999999999,-3.5960910000000004,3,15
-6.224924,-12.23437,-26.230873,3,15
1.273715,-6.502651,-3.572149,3,15
0.7230489999999999,-6.871359,-4.079719,3,15
2.226608,-7.575253999999999,-12.555194,3,15
3.284845,-11.96622,-3.892972,3,15
3.945645,-11.760319,-8.09719,3,15
2.801216,-9.32781,-5.133168,3,15
-1.35033,-3.380613,-0.057461,3,15
-0.253785,-6.373365,0.205901,3,15
-1.608903,-6.502651,-3.998317,3,15
1.685518,-10.146626,-1.115698,3,15
0.665588,-6.809108999999999,-1.939303,3,16
-2.011129,-4.232949,-0.919373,3,16
2.432509,-10.304645,-1.671153,3,16
0.588974,-5.999869,-2.327164,3,16
1.431733,-8.27436,-1.73819,3,16
-1.7860740000000002,-7.996633,-3.3279400000000003,3,16
0.885855,-11.468226,5.544971,3,16
-0.770933,-21.74414,-3.605668,3,16
6.670246000000001,-13.206416,-4.611232,3,16
0.675165,-17.343597,-7.225700999999999,3,16
7.771578999999999,-8.580819,12.650962,3,16
3.873819,-6.162675,-6.210559,3,16
3.193865,-12.392388,2.5953150000000003,3,16
4.951209,-25.828648,-7.991845,3,16
7.484275,-14.887146,2.973599,3,16
4.797981,-19.560625,-9.227253,3,16
-0.933739,-9.188946,10.007763,3,16
4.347871,-7.354986999999999,-6.277597,3,16
5.061342,-13.785813,10.333375,3,16
2.499547,-4.788403,0.019154,3,16
5.923255,-18.195932,10.486604,3,16
2.5953150000000003,-7.762002000000001,-10.606314,3,16
-6.287173,-20.60929,-38.08696,3,16
1.4987700000000002,-14.719551999999998,-5.975927,3,16
4.936844000000001,-19.177555,17.492037,3,16
5.00867,-9.591172,-1.522712,3,16
0.21069,-4.065354,1.5370780000000002,3,16
-0.47884,-12.210428,-0.301669,3,16
-0.153229,-10.213664,-1.7525560000000002,3,16
0.6272810000000001,-7.627927000000001,-3.270479,3,16
1.264139,-7.517792999999999,0.493206,3,17
-1.086968,-5.717354,2.499547,3,17
-2.614468,-8.508992999999998,-0.071826,3,17
-1.522712,-16.82645,-2.791639,3,17
4.31914,-13.091495,-0.411803,3,17
0.430956,-15.255854,-5.688623000000001,3,17
5.061342,-14.508862,-22.663513,3,17
2.82037,-9.710882000000002,-3.806781,3,17
2.753332,-11.559206,-10.630256,3,17
0.9912,-8.935161,-0.1723829999999999,3,17
-3.600879,-3.524265,0.957681,3,17
-2.082955,-11.808203,0.229843,3,17
-1.8579,-4.3766,2.327164,3,17
-2.130839,-12.421119,-0.2585739999999999,3,17
-6.478708999999999,-20.39381,1.177947,3,17
0.35913,-22.716187,7.800308999999999,3,17
3.380613,-11.070788,-2.403778,3,17
2.806004,-10.754754,3.672706,3,17
-6.478708999999999,-22.16073,0.162806,3,17
5.272033,-25.546135,-8.652645,3,17
-2.264915,-17.348385,-2.834735,3,17
-7.426813,1.345541,-2.686294,3,17
-0.694318,-15.030798,-5.501875,3,17
-0.632069,-14.848839000000002,-11.224017,3,17
3.782839,-11.597513,-2.94008,3,17
-0.507571,-5.104438,-2.111686,3,17
1.369483,-4.520251999999999,-2.863465,3,17
2.494758,-11.36767,-2.255338,3,17
2.054225,-5.640739,1.56102,3,17
-2.662352,-8.145074000000001,-5.1666870000000005,3,17
-0.933739,-9.188946,10.007763,3,18
4.347871,-7.354986999999999,-6.277597,3,18
5.061342,-13.785813,10.333375,3,18
2.499547,-4.788403,0.019154,3,18
5.923255,-18.195932,10.486604,3,18
2.5953150000000003,-7.762002000000001,-10.606314,3,18
-6.287173,-20.60929,-38.08696,3,18
1.4987700000000002,-14.719551999999998,-5.975927,3,18
4.936844000000001,-19.177555,17.492037,3,18
5.00867,-9.591172,-1.522712,3,18
0.21069,-4.065354,1.5370780000000002,3,18
-0.47884,-12.210428,-0.301669,3,18
-0.153229,-10.213664,-1.7525560000000002,3,18
0.6272810000000001,-7.627927000000001,-3.270479,3,18
1.177947,-5.415684,-2.059013,3,18
3.466804,-5.406107,-2.633622,3,18
0.057461,-6.445191,-3.069367,3,18
5.88016,-6.900089,-3.509899,3,18
4.774039,-9.251195,-2.600103,3,18
0.766145,-4.089296,-0.833182,3,18
5.865794,-9.840169,-1.23062,3,18
-1.446098,-4.903325,-0.512359,3,18
2.600103,-7.929596000000001,0.5841850000000001,3,18
-1.766921,-5.295974,0.766145,3,18
0.430956,-7.699753,-0.579397,3,18
0.8475469999999999,-9.337387,-3.797204,3,18
-1.8579,-7.623138000000001,9.021352,3,18
0.272939,-11.860875,-2.920926,3,18
2.499547,-7.843405000000001,-3.620033,3,18
-4.76925,-9.648633,-12.382812,3,18
-2.911349,-8.556877,-1.848324,3,19
-3.002329,-13.148955,0.646435,3,19
-5.06613,-9.428367,0.732626,3,19
-8.614338,-15.021221,-1.436521,3,19
0.349553,-6.5792660000000005,-6.995857000000001,3,19
-2.920926,-10.726024,-0.148441,3,19
-3.653552,-10.951078,-4.003105000000001,3,19
-9.332599,-18.492813,-6.440402,3,19
-5.755661,-13.891158,1.273715,3,19
-7.196969999999999,-11.358092999999998,1.685518,3,19
-10.036493,-12.765883,-0.6464340000000001,3,19
-0.158017,-2.930503,-7.479486,3,19
-2.604891,-7.661445,-0.11971,3,19
-1.40779,-13.340492,-3.916914,3,19
-2.255338,-14.398729,-2.801216,3,19
-7.517792999999999,-11.947066,-1.656788,3,19
-1.996764,1.393425,2.652776,3,19
-4.189853,-10.275913,1.1300629999999998,3,19
0.8379709999999999,-11.693281,-1.1300629999999998,3,19
-3.122039,-11.985373,-1.393425,3,19
-2.078167,-4.209007,-1.244985,3,19
-1.877054,-6.943185000000001,-1.915361,3,19
-5.473145,-10.730812,-1.077391,3,19
2.987964,-5.018246,1.647211,3,19
0.675165,-11.60709,-2.662352,3,19
-1.278504,-2.700659,0.924162,3,19
-4.424484,-10.726024,-1.082179,3,19
0.646435,-0.641646,-1.04866,3,19
-1.623269,-6.603208,0.071826,3,19
-4.323928,-2.671929,3.485958,3,19
4.879383,-13.110648,-3.5960910000000004,3,20
1.201889,-17.908628,0.004788,3,20
-6.847417,-16.74026,4.13718,3,20
-4.003105000000001,1.249773,10.716447,3,20
3.0502130000000003,-11.482592,-4.683058,3,20
8.532935,-14.571112,-11.492168,3,20
2.1883,-8.987833,-1.273715,3,20
1.101333,-3.648763,0.416591,3,20
4.276045,-9.346964,0.502782,3,20
-3.77805,-3.605668,2.475605,3,20
2.236184,-7.388506,-1.173159,3,20
-4.094085,-1.441309,2.13084,3,20
2.011129,-12.564771,0.8236049999999999,3,20
-0.071826,-13.733141,2.652776,3,20
1.996764,-6.062118,-6.210559,3,20
3.438074,-7.139508999999999,0.292093,3,20
12.650962,1.61848,10.716447,3,20
7.402872,-7.771578999999999,-4.127603,3,20
2.920926,-8.571242,-7.881711999999999,3,20
2.767697,-8.935161,-2.149993,3,20
-1.101333,-13.939042,-0.948104,3,20
1.532289,-6.2153480000000005,-5.928043,3,20
2.652776,-5.865794,-3.227384,3,20
-0.737414,-3.86903,-1.4987700000000002,3,20
3.677494,-6.8761470000000005,-2.782062,3,20
0.612916,-3.744531,-0.507571,3,20
0.052672,-8.403648,-4.185065,3,20
-1.843535,-3.892972,-1.929727,3,20
0.665588,-6.809108999999999,-1.939303,3,20
-2.011129,-4.232949,-0.919373,3,20
3.193865,-12.392388,2.5953150000000003,3,21
4.951209,-25.828648,-7.991845,3,21
7.484275,-14.887146,2.973599,3,21
4.797981,-19.560625,-9.227253,3,21
-0.933739,-9.188946,10.007763,3,21
4.347871,-7.354986999999999,-6.277597,3,21
5.061342,-13.785813,10.333375,3,21
2.499547,-4.788403,0.019154,3,21
5.923255,-18.195932,10.486604,3,21
2.5953150000000003,-7.762002000000001,-10.606314,3,21
-6.287173,-20.60929,-38.08696,3,21
1.4987700000000002,-14.719551999999998,-5.975927,3,21
4.936844000000001,-19.177555,17.492037,3,21
5.00867,-9.591172,-1.522712,3,21
0.21069,-4.065354,1.5370780000000002,3,21
-0.47884,-12.210428,-0.301669,3,21
-0.153229,-10.213664,-1.7525560000000002,3,21
0.6272810000000001,-7.627927000000001,-3.270479,3,21
1.177947,-5.415684,-2.059013,3,21
3.466804,-5.406107,-2.633622,3,21
0.057461,-6.445191,-3.069367,3,21
5.88016,-6.900089,-3.509899,3,21
4.774039,-9.251195,-2.600103,3,21
0.766145,-4.089296,-0.833182,3,21
5.865794,-9.840169,-1.23062,3,21
-1.446098,-4.903325,-0.512359,3,21
2.600103,-7.929596000000001,0.5841850000000001,3,21
-1.766921,-5.295974,0.766145,3,21
0.430956,-7.699753,-0.579397,3,21
0.8475469999999999,-9.337387,-3.797204,3,21
-3.787627,-8.633492,0.895431,3,22
-2.30801,-13.445837,-2.834735,3,22
-0.545878,-3.653552,6.670246000000001,3,22
2.844312,-10.486604,-1.580173,3,22
2.566584,-10.323798,-1.16837,3,22
2.63841,-7.168239999999999,-0.71826,3,22
3.907337,-4.984728,-3.821146,3,22
0.354342,-9.56723,-5.7700260000000005,3,22
0.9912,-10.290278,-5.099648999999999,3,22
-2.389413,-12.220005,-6.330269,3,22
-1.7860740000000002,-18.737022,6.244078,3,22
4.644751,-11.018116,-1.04866,3,22
-2.269703,-2.782062,2.39899,3,22
1.479617,-9.251195,-0.857124,3,22
5.152323,-11.702858,-2.27928,3,22
1.637634,-22.720974,-10.491392,3,22
-2.346318,-3.270479,1.063026,3,22
-1.685518,-7.580042,-1.623269,3,22
-1.80044,-7.465121000000001,-3.069367,3,22
-0.124498,-12.559982000000002,6.7516490000000005,3,22
1.7525560000000002,-17.501614,-3.801992,3,22
2.331953,-9.744401,-7.407660000000001,3,22
3.222596,-8.920795,-3.08852,3,22
-3.457227,-2.715025,0.148441,3,22
2.264915,-9.931149,-4.659116,3,22
0.9912,-10.903194,-8.183380999999999,3,22
2.226608,-8.044516999999999,-2.341529,3,22
-1.647211,-11.851298,6.775591,3,22
8.39886,-13.771448,-2.566584,3,22
2.494758,-10.328587,-8.690952000000001,3,22
-0.474052,-4.13718,-1.249773,3,23
-0.761356,-9.203311,-2.178723,3,23
-1.278504,-4.1419690000000005,0.253785,3,23
-0.3304,-6.105214,-3.284845,3,23
1.455675,-7.479486,-3.864241,3,23
1.613692,-9.150639,-4.151545,3,23
1.216255,-9.792285,0.636858,3,23
-2.54743,-7.086836999999999,-2.585738,3,23
-1.206678,-9.433155,-2.202665,3,23
-3.102885,-4.644751,-2.456451,3,23
0.282516,-9.251195,-0.933739,3,23
-3.20823,-4.711789,0.885855,3,23
2.418144,-8.571242,-1.675941,3,23
-5.861006,-6.397307,-3.375824,3,23
2.959233,-6.081272,-3.136404,3,23
-7.805097,-8.365341,-2.130839,3,23
-0.842759,-6.119579,-1.61848,3,23
-1.814805,-7.259219,-1.043872,3,23
-0.617704,-6.301539,-1.067814,3,23
-1.685518,-8.403648,0.550666,3,23
2.48997,-15.964537,-0.8379709999999999,3,23
-0.483629,-15.078682,-6.253655,3,23
-2.633622,-17.927782,-5.453991,3,23
-2.312799,-15.825673000000002,9.706094,3,23
-0.6272810000000001,-14.772224,-5.3821650000000005,3,23
2.466028,-6.856992999999999,-4.477157,3,23
-4.67827,-6.397307,-3.993528,3,23
-1.838747,-9.935937,-3.1076740000000003,3,23
0.325611,-8.619126,-3.4428620000000003,3,23
-2.604891,-4.180276,-2.652775,3,23
0.057461,-6.445191,-3.069367,3,24
5.88016,-6.900089,-3.509899,3,24
4.774039,-9.251195,-2.600103,3,24
0.766145,-4.089296,-0.833182,3,24
5.865794,-9.840169,-1.23062,3,24
-1.446098,-4.903325,-0.512359,3,24
2.600103,-7.929596000000001,0.5841850000000001,3,24
-1.766921,-5.295974,0.766145,3,24
0.430956,-7.699753,-0.579397,3,24
0.8475469999999999,-9.337387,-3.797204,3,24
-1.8579,-7.623138000000001,9.021352,3,24
0.272939,-11.860875,-2.920926,3,24
2.499547,-7.843405000000001,-3.620033,3,24
-4.76925,-9.648633,-12.382812,3,24
2.475605,-9.993398,-6.62715,3,24
2.748544,-6.9096660000000005,-3.39019,3,24
1.264139,-7.517792999999999,0.493206,3,24
-1.086968,-5.717354,2.499547,3,24
-2.614468,-8.508992999999998,-0.071826,3,24
-1.522712,-16.82645,-2.791639,3,24
4.31914,-13.091495,-0.411803,3,24
0.430956,-15.255854,-5.688623000000001,3,24
5.061342,-14.508862,-22.663513,3,24
2.82037,-9.710882000000002,-3.806781,3,24
2.753332,-11.559206,-10.630256,3,24
0.9912,-8.935161,-0.1723829999999999,3,24
-3.600879,-3.524265,0.957681,3,24
-2.082955,-11.808203,0.229843,3,24
-1.8579,-4.3766,2.327164,3,24
-2.130839,-12.421119,-0.2585739999999999,3,24
-1.125275,-4.180276,2.418144,3,25
4.094085,-6.933608,-4.3574470000000005,3,25
2.1787240000000003,-16.232687,-0.287304,3,25
0.761356,-19.2829,-0.842759,3,25
-7.254430999999999,-15.102624,-2.801216,3,25
0.588974,-22.117636,-28.031313,3,25
1.3982139999999998,-12.497733,-4.213794999999999,3,25
1.762132,-15.083470000000002,-7.560888999999999,3,25
5.185841,-13.52724,-2.365471,3,25
-1.474828,0.526724,0.038307,3,25
0.086191,-10.16578,-0.565032,3,25
0.052672,-17.745823,-3.203442,3,25
-7.939172,-14.302960999999998,-13.10586,3,25
-2.48997,-8.829816000000001,3.193865,3,25
0.871489,-11.013328,0.885855,3,25
2.686294,-8.963891,-3.883395,3,25
1.197101,-10.400413,-6.23929,3,25
-4.34787,-6.133945,-2.020706,3,25
1.714248,-11.219229,1.063026,3,25
-1.94888,-3.064578,-2.513912,3,25
1.225831,-5.5545480000000005,-2.317587,3,25
0.21069,-10.802638,-1.599327,3,25
2.738967,-8.657434,4.031836,3,25
4.094085,-11.401189,-0.651223,3,25
1.647211,-8.207322999999999,-8.537724,3,25
0.277727,-7.067683000000001,-4.893748,3,25
1.364695,-8.528147,-6.382941000000001,3,25
9.141062,-9.184157,0.42138,3,25
7.953538000000001,-14.413095000000002,-2.494758,3,25
0.651223,-1.40779,4.683059,3,25
-6.478708999999999,-20.39381,1.177947,3,26
0.35913,-22.716187,7.800308999999999,3,26
3.380613,-11.070788,-2.403778,3,26
2.806004,-10.754754,3.672706,3,26
-6.478708999999999,-22.16073,0.162806,3,26
5.272033,-25.546135,-8.652645,3,26
-2.264915,-17.348385,-2.834735,3,26
-7.426813,1.345541,-2.686294,3,26
-0.694318,-15.030798,-5.501875,3,26
-0.632069,-14.848839000000002,-11.224017,3,26
3.782839,-11.597513,-2.94008,3,26
-0.507571,-5.104438,-2.111686,3,26
1.369483,-4.520251999999999,-2.863465,3,26
2.494758,-11.36767,-2.255338,3,26
2.054225,-5.640739,1.56102,3,26
-2.662352,-8.145074000000001,-5.1666870000000005,3,26
-3.318364,-8.346186999999999,1.551443,3,26
2.236184,-10.175357,3.423709,3,26
-9.528923,-19.484013,4.113238,3,26
-3.864241,-19.670761,-13.962984,3,26
1.963245,-10.242394,-2.3606830000000003,3,26
3.878607,-11.48738,-12.65575,3,26
3.026271,-8.432379,-7.244853999999999,3,26
-5.023035,-16.223110000000002,-12.464214,3,26
-0.4548979999999999,-14.882357999999998,-6.933608,3,26
9.035717,-13.206416,12.617443,3,26
-1.273715,-5.353435,-0.641646,3,26
-0.794875,-9.160215,-0.1819589999999999,3,26
2.336741,-11.722012,-1.321599,3,26
-6.1578870000000006,-1.489193,-0.54109,3,26
0.483629,-8.561666,-3.653552,3,27
8.2169,-11.386824,-0.1005559999999999,3,27
-0.124498,-9.442732,-0.842759,3,27
2.657564,-10.381259,0.665588,3,27
1.383849,-16.093823999999998,-1.479617,3,27
1.771709,-13.642160999999998,-8.920795,3,27
1.024718,-5.295974,-1.484405,3,27
2.628834,-4.697424,-3.892972,3,27
2.422932,-4.544194,1.604115,3,27
-0.229843,-7.383717999999999,-6.809108999999999,3,27
2.949657,-13.354857,-3.998317,3,27
1.134852,-5.291186,-4.3766,3,27
-0.536301,-6.2153480000000005,-6.378153,3,27
2.48997,-7.809886,-3.672705,3,27
2.686294,-16.46732,-2.336741,3,27
2.5953150000000003,-15.524004,-2.437297,3,27
-6.186617,-13.532028,-3.155558,3,27
-0.536301,-11.386824,-12.243947,3,27
-5.228936,-7.862558,-3.323152,3,27
0.316035,-8.226476,-2.590526,3,27
1.01993,-9.423578,-5.741296,3,27
-0.6272810000000001,-8.944737,-6.315904,3,27
-1.082179,-5.779603,-0.483629,3,27
1.4604629999999998,-11.267113,-1.340753,3,27
-3.835511,-12.253524,8.130709,3,27
1.776498,-7.091625,0.636858,3,27
14.164097,-11.554418,5.99987,3,27
10.864887,-1.446098,5.295975,3,27
9.064447,-3.0502130000000003,15.011644,3,27
6.871359,-2.738967,11.865664,3,27
0.21069,-4.065354,1.5370780000000002,3,28
-0.47884,-12.210428,-0.301669,3,28
-0.153229,-10.213664,-1.7525560000000002,3,28
0.6272810000000001,-7.627927000000001,-3.270479,3,28
1.177947,-5.415684,-2.059013,3,28
3.466804,-5.406107,-2.633622,3,28
0.057461,-6.445191,-3.069367,3,28
5.88016,-6.900089,-3.509899,3,28
4.774039,-9.251195,-2.600103,3,28
0.766145,-4.089296,-0.833182,3,28
5.865794,-9.840169,-1.23062,3,28
-1.446098,-4.903325,-0.512359,3,28
2.600103,-7.929596000000001,0.5841850000000001,3,28
-1.766921,-5.295974,0.766145,3,28
0.430956,-7.699753,-0.579397,3,28
0.8475469999999999,-9.337387,-3.797204,3,28
-1.8579,-7.623138000000001,9.021352,3,28
0.272939,-11.860875,-2.920926,3,28
2.499547,-7.843405000000001,-3.620033,3,28
-4.76925,-9.648633,-12.382812,3,28
2.475605,-9.993398,-6.62715,3,28
2.748544,-6.9096660000000005,-3.39019,3,28
1.264139,-7.517792999999999,0.493206,3,28
-1.086968,-5.717354,2.499547,3,28
-2.614468,-8.508992999999998,-0.071826,3,28
-1.522712,-16.82645,-2.791639,3,28
4.31914,-13.091495,-0.411803,3,28
0.430956,-15.255854,-5.688623000000001,3,28
5.061342,-14.508862,-22.663513,3,28
2.82037,-9.710882000000002,-3.806781,3,28
3.222596,-8.920795,-3.08852,3,29
-3.457227,-2.715025,0.148441,3,29
2.264915,-9.931149,-4.659116,3,29
0.9912,-10.903194,-8.183380999999999,3,29
2.226608,-8.044516999999999,-2.341529,3,29
-1.647211,-11.851298,6.775591,3,29
8.39886,-13.771448,-2.566584,3,29
2.494758,-10.328587,-8.690952000000001,3,29
0.8236049999999999,-7.383717999999999,-3.5960910000000004,3,29
-6.224924,-12.23437,-26.230873,3,29
1.273715,-6.502651,-3.572149,3,29
0.7230489999999999,-6.871359,-4.079719,3,29
2.226608,-7.575253999999999,-12.555194,3,29
3.284845,-11.96622,-3.892972,3,29
3.945645,-11.760319,-8.09719,3,29
2.801216,-9.32781,-5.133168,3,29
-1.35033,-3.380613,-0.057461,3,29
-0.253785,-6.373365,0.205901,3,29
-1.608903,-6.502651,-3.998317,3,29
1.685518,-10.146626,-1.115698,3,29
-0.474052,-4.13718,-1.249773,3,29
-0.761356,-9.203311,-2.178723,3,29
-1.278504,-4.1419690000000005,0.253785,3,29
-0.3304,-6.105214,-3.284845,3,29
1.455675,-7.479486,-3.864241,3,29
1.613692,-9.150639,-4.151545,3,29
1.216255,-9.792285,0.636858,3,29
-2.54743,-7.086836999999999,-2.585738,3,29
-1.206678,-9.433155,-2.202665,3,29
-3.102885,-4.644751,-2.456451,3,29
2.1787240000000003,-16.232687,-0.287304,3,30
0.761356,-19.2829,-0.842759,3,30
-7.254430999999999,-15.102624,-2.801216,3,30
0.588974,-22.117636,-28.031313,3,30
1.3982139999999998,-12.497733,-4.213794999999999,3,30
1.762132,-15.083470000000002,-7.560888999999999,3,30
5.185841,-13.52724,-2.365471,3,30
-1.474828,0.526724,0.038307,3,30
0.086191,-10.16578,-0.565032,3,30
0.052672,-17.745823,-3.203442,3,30
-7.939172,-14.302960999999998,-13.10586,3,30
-2.48997,-8.829816000000001,3.193865,3,30
0.871489,-11.013328,0.885855,3,30
2.686294,-8.963891,-3.883395,3,30
1.197101,-10.400413,-6.23929,3,30
-4.34787,-6.133945,-2.020706,3,30
1.714248,-11.219229,1.063026,3,30
-1.94888,-3.064578,-2.513912,3,30
1.225831,-5.5545480000000005,-2.317587,3,30
0.21069,-10.802638,-1.599327,3,30
2.738967,-8.657434,4.031836,3,30
4.094085,-11.401189,-0.651223,3,30
1.647211,-8.207322999999999,-8.537724,3,30
0.277727,-7.067683000000001,-4.893748,3,30
1.364695,-8.528147,-6.382941000000001,3,30
9.141062,-9.184157,0.42138,3,30
7.953538000000001,-14.413095000000002,-2.494758,3,30
0.651223,-1.40779,4.683059,3,30
2.418144,4.994305000000001,13.445837,3,30
0.670377,4.730943,8.403648,3,30
-8.825027,-12.411542,-3.476381,3,31
-3.557784,-5.492298,-0.1005559999999999,3,31
-3.998317,-14.302960999999998,-0.919373,3,31
-1.297657,-1.517924,-2.149993,3,31
-5.736507,-15.35641,-1.039083,3,31
1.024718,-3.825934,-3.1795,3,31
-1.94888,-14.389153,-3.08852,3,31
-3.203442,-1.072602,-0.071826,3,31
-6.842628,-6.809108999999999,-1.934515,3,31
-4.984728,-8.633492,-2.906561,3,31
-2.911349,-8.556877,-1.848324,3,31
-3.002329,-13.148955,0.646435,3,31
-5.06613,-9.428367,0.732626,3,31
-8.614338,-15.021221,-1.436521,3,31
0.349553,-6.5792660000000005,-6.995857000000001,3,31
-2.920926,-10.726024,-0.148441,3,31
-3.653552,-10.951078,-4.003105000000001,3,31
-9.332599,-18.492813,-6.440402,3,31
-5.755661,-13.891158,1.273715,3,31
-7.196969999999999,-11.358092999999998,1.685518,3,31
-10.036493,-12.765883,-0.6464340000000001,3,31
-0.158017,-2.930503,-7.479486,3,31
-2.604891,-7.661445,-0.11971,3,31
-1.40779,-13.340492,-3.916914,3,31
-2.255338,-14.398729,-2.801216,3,31
-7.517792999999999,-11.947066,-1.656788,3,31
-1.996764,1.393425,2.652776,3,31
-4.189853,-10.275913,1.1300629999999998,3,31
0.8379709999999999,-11.693281,-1.1300629999999998,3,31
-3.122039,-11.985373,-1.393425,3,31
-0.124498,-9.442732,-0.842759,3,32
2.657564,-10.381259,0.665588,3,32
1.383849,-16.093823999999998,-1.479617,3,32
1.771709,-13.642160999999998,-8.920795,3,32
1.024718,-5.295974,-1.484405,3,32
2.628834,-4.697424,-3.892972,3,32
2.422932,-4.544194,1.604115,3,32
-0.229843,-7.383717999999999,-6.809108999999999,3,32
2.949657,-13.354857,-3.998317,3,32
1.134852,-5.291186,-4.3766,3,32
-0.536301,-6.2153480000000005,-6.378153,3,32
2.48997,-7.809886,-3.672705,3,32
2.686294,-16.46732,-2.336741,3,32
2.5953150000000003,-15.524004,-2.437297,3,32
-6.186617,-13.532028,-3.155558,3,32
-0.536301,-11.386824,-12.243947,3,32
-5.228936,-7.862558,-3.323152,3,32
0.316035,-8.226476,-2.590526,3,32
1.01993,-9.423578,-5.741296,3,32
-0.6272810000000001,-8.944737,-6.315904,3,32
-1.082179,-5.779603,-0.483629,3,32
1.4604629999999998,-11.267113,-1.340753,3,32
-3.835511,-12.253524,8.130709,3,32
1.776498,-7.091625,0.636858,3,32
14.164097,-11.554418,5.99987,3,32
10.864887,-1.446098,5.295975,3,32
9.064447,-3.0502130000000003,15.011644,3,32
6.871359,-2.738967,11.865664,3,32
5.521029,-0.158017,10.16578,3,32
3.394978,0.0909799999999999,5.243302,3,32
-6.478708999999999,-22.16073,0.162806,3,33
5.272033,-25.546135,-8.652645,3,33
-2.264915,-17.348385,-2.834735,3,33
-7.426813,1.345541,-2.686294,3,33
-0.694318,-15.030798,-5.501875,3,33
-0.632069,-14.848839000000002,-11.224017,3,33
3.782839,-11.597513,-2.94008,3,33
-0.507571,-5.104438,-2.111686,3,33
1.369483,-4.520251999999999,-2.863465,3,33
2.494758,-11.36767,-2.255338,3,33
2.054225,-5.640739,1.56102,3,33
-2.662352,-8.145074000000001,-5.1666870000000005,3,33
-3.318364,-8.346186999999999,1.551443,3,33
2.236184,-10.175357,3.423709,3,33
-9.528923,-19.484013,4.113238,3,33
-3.864241,-19.670761,-13.962984,3,33
1.963245,-10.242394,-2.3606830000000003,3,33
3.878607,-11.48738,-12.65575,3,33
3.026271,-8.432379,-7.244853999999999,3,33
-5.023035,-16.223110000000002,-12.464214,3,33
-0.4548979999999999,-14.882357999999998,-6.933608,3,33
9.035717,-13.206416,12.617443,3,33
-1.273715,-5.353435,-0.641646,3,33
-0.794875,-9.160215,-0.1819589999999999,3,33
2.336741,-11.722012,-1.321599,3,33
-6.1578870000000006,-1.489193,-0.54109,3,33
-6.904877000000001,-20.159178,-0.866701,3,33
-1.958457,-8.978256,-4.625597,3,33
0.196325,-2.643199,-0.114922,3,33
-1.728614,-4.9943040000000005,-1.192312,3,33
-3.600879,-3.524265,0.957681,3,34
-2.082955,-11.808203,0.229843,3,34
-1.8579,-4.3766,2.327164,3,34
-2.130839,-12.421119,-0.2585739999999999,3,34
-6.478708999999999,-20.39381,1.177947,3,34
0.35913,-22.716187,7.800308999999999,3,34
3.380613,-11.070788,-2.403778,3,34
2.806004,-10.754754,3.672706,3,34
-6.478708999999999,-22.16073,0.162806,3,34
5.272033,-25.546135,-8.652645,3,34
-2.264915,-17.348385,-2.834735,3,34
-7.426813,1.345541,-2.686294,3,34
-0.694318,-15.030798,-5.501875,3,34
-0.632069,-14.848839000000002,-11.224017,3,34
3.782839,-11.597513,-2.94008,3,34
-0.507571,-5.104438,-2.111686,3,34
1.369483,-4.520251999999999,-2.863465,3,34
2.494758,-11.36767,-2.255338,3,34
2.054225,-5.640739,1.56102,3,34
-2.662352,-8.145074000000001,-5.1666870000000005,3,34
-3.318364,-8.346186999999999,1.551443,3,34
2.236184,-10.175357,3.423709,3,34
-9.528923,-19.484013,4.113238,3,34
-3.864241,-19.670761,-13.962984,3,34
1.963245,-10.242394,-2.3606830000000003,3,34
3.878607,-11.48738,-12.65575,3,34
3.026271,-8.432379,-7.244853999999999,3,34
-5.023035,-16.223110000000002,-12.464214,3,34
-0.4548979999999999,-14.882357999999998,-6.933608,3,34
9.035717,-13.206416,12.617443,3,34
3.2896330000000003,-7.469908999999999,-0.0430959999999999,3,35
-1.6519990000000002,-17.535133,-2.2505490000000004,3,35
-6.320692,-6.196194,1.896208,3,35
-1.331176,-17.956512,-0.632069,3,35
12.133814,-18.703505,-7.508216,3,35
6.588842999999999,-10.568007,-2.60968,3,35
7.996633999999999,-5.918466,-6.646304,3,35
0.2585739999999999,-8.657434,-2.351106,3,35
-1.94888,-5.003881,2.006341,3,35
1.364695,-8.054094000000001,-3.222595,3,35
2.0302830000000003,-13.613431,-2.0302830000000003,3,35
12.411542,-13.881581,-4.386177,3,35
4.879383,-13.110648,-3.5960910000000004,3,35
1.201889,-17.908628,0.004788,3,35
-6.847417,-16.74026,4.13718,3,35
-4.003105000000001,1.249773,10.716447,3,35
3.0502130000000003,-11.482592,-4.683058,3,35
8.532935,-14.571112,-11.492168,3,35
2.1883,-8.987833,-1.273715,3,35
1.101333,-3.648763,0.416591,3,35
4.276045,-9.346964,0.502782,3,35
-3.77805,-3.605668,2.475605,3,35
2.236184,-7.388506,-1.173159,3,35
-4.094085,-1.441309,2.13084,3,35
2.011129,-12.564771,0.8236049999999999,3,35
-0.071826,-13.733141,2.652776,3,35
1.996764,-6.062118,-6.210559,3,35
3.438074,-7.139508999999999,0.292093,3,35
12.650962,1.61848,10.716447,3,35
7.402872,-7.771578999999999,-4.127603,3,35
4.563349,-3.730166000000001,-0.02873,3,36
-0.972046,-6.660669,-2.954445,3,36
-2.8682540000000003,-5.4970870000000005,0.23942,3,36
2.767697,-4.932055,0.110133,3,36
2.470816,-7.718906,2.949657,3,36
4.941633,-6.833050999999999,-1.6998830000000005,3,36
1.1683709999999998,-9.816227,1.910573,3,36
8.073248,-5.856217,-1.359906,3,36
3.366248,-16.82645,1.1683709999999998,3,36
7.015011,-16.845604,-7.517792999999999,3,36
4.697424,-9.074024,-0.866701,3,36
-1.5466540000000002,-1.508347,0.3304,3,36
3.830723,-12.014104,-1.158794,3,36
2.418144,-9.002198,0.8236049999999999,3,36
3.529053,-7.436389999999999,1.905785,3,36
0.986411,-17.3005,-0.3830719999999999,3,36
-4.582502,-7.862558,9.792285,3,36
1.910573,-5.985504,-1.599327,3,36
4.458004,-6.914453999999999,-5.401319,3,36
2.475605,-8.705316999999999,-0.3734949999999999,3,36
-1.120486,-5.803545,2.044648,3,36
-2.39899,-8.451532,4.055778,3,36
5.64074,-8.566454,1.029507,3,36
-0.8283940000000001,-0.483629,10.582372,3,36
4.491523,-7.393294999999999,-1.58975,3,36
4.97994,-10.127473,-14.422671,3,36
1.106121,-7.115567,2.240973,3,36
1.355118,-8.667010000000001,1.479617,3,36
2.149993,-7.474697,5.93762,3,36
8.288725999999999,-10.783484,-3.165135,3,36
-9.528923,-19.484013,4.113238,3,37
-3.864241,-19.670761,-13.962984,3,37
1.963245,-10.242394,-2.3606830000000003,3,37
3.878607,-11.48738,-12.65575,3,37
3.026271,-8.432379,-7.244853999999999,3,37
-5.023035,-16.223110000000002,-12.464214,3,37
-0.4548979999999999,-14.882357999999998,-6.933608,3,37
9.035717,-13.206416,12.617443,3,37
-1.273715,-5.353435,-0.641646,3,37
-0.794875,-9.160215,-0.1819589999999999,3,37
2.336741,-11.722012,-1.321599,3,37
-6.1578870000000006,-1.489193,-0.54109,3,37
-6.904877000000001,-20.159178,-0.866701,3,37
-1.958457,-8.978256,-4.625597,3,37
0.196325,-2.643199,-0.114922,3,37
-1.728614,-4.9943040000000005,-1.192312,3,37
0.746991,-5.238512999999999,-1.043872,3,37
-1.197101,-3.68707,2.882619,3,37
-0.344765,-9.696517,0.679953,3,37
-5.386954,-16.323667999999998,4.266468,3,37
-3.787627,-8.633492,0.895431,3,37
-2.30801,-13.445837,-2.834735,3,37
-0.545878,-3.653552,6.670246000000001,3,37
2.844312,-10.486604,-1.580173,3,37
2.566584,-10.323798,-1.16837,3,37
2.63841,-7.168239999999999,-0.71826,3,37
3.907337,-4.984728,-3.821146,3,37
0.354342,-9.56723,-5.7700260000000005,3,37
0.9912,-10.290278,-5.099648999999999,3,37
-2.389413,-12.220005,-6.330269,3,37
3.782839,-11.597513,-2.94008,3,38
-0.507571,-5.104438,-2.111686,3,38
1.369483,-4.520251999999999,-2.863465,3,38
2.494758,-11.36767,-2.255338,3,38
2.054225,-5.640739,1.56102,3,38
-2.662352,-8.145074000000001,-5.1666870000000005,3,38
-3.318364,-8.346186999999999,1.551443,3,38
2.236184,-10.175357,3.423709,3,38
-9.528923,-19.484013,4.113238,3,38
-3.864241,-19.670761,-13.962984,3,38
1.963245,-10.242394,-2.3606830000000003,3,38
3.878607,-11.48738,-12.65575,3,38
3.026271,-8.432379,-7.244853999999999,3,38
-5.023035,-16.223110000000002,-12.464214,3,38
-0.4548979999999999,-14.882357999999998,-6.933608,3,38
9.035717,-13.206416,12.617443,3,38
-1.273715,-5.353435,-0.641646,3,38
-0.794875,-9.160215,-0.1819589999999999,3,38
2.336741,-11.722012,-1.321599,3,38
-6.1578870000000006,-1.489193,-0.54109,3,38
-6.904877000000001,-20.159178,-0.866701,3,38
-1.958457,-8.978256,-4.625597,3,38
0.196325,-2.643199,-0.114922,3,38
-1.728614,-4.9943040000000005,-1.192312,3,38
0.746991,-5.238512999999999,-1.043872,3,38
-1.197101,-3.68707,2.882619,3,38
-0.344765,-9.696517,0.679953,3,38
-5.386954,-16.323667999999998,4.266468,3,38
-3.787627,-8.633492,0.895431,3,38
-2.30801,-13.445837,-2.834735,3,38
2.0302830000000003,-13.613431,-2.0302830000000003,3,39
12.411542,-13.881581,-4.386177,3,39
4.879383,-13.110648,-3.5960910000000004,3,39
1.201889,-17.908628,0.004788,3,39
-6.847417,-16.74026,4.13718,3,39
-4.003105000000001,1.249773,10.716447,3,39
3.0502130000000003,-11.482592,-4.683058,3,39
8.532935,-14.571112,-11.492168,3,39
2.1883,-8.987833,-1.273715,3,39
1.101333,-3.648763,0.416591,3,39
4.276045,-9.346964,0.502782,3,39
-3.77805,-3.605668,2.475605,3,39
2.236184,-7.388506,-1.173159,3,39
-4.094085,-1.441309,2.13084,3,39
2.011129,-12.564771,0.8236049999999999,3,39
-0.071826,-13.733141,2.652776,3,39
1.996764,-6.062118,-6.210559,3,39
3.438074,-7.139508999999999,0.292093,3,39
12.650962,1.61848,10.716447,3,39
7.402872,-7.771578999999999,-4.127603,3,39
2.920926,-8.571242,-7.881711999999999,3,39
2.767697,-8.935161,-2.149993,3,39
-1.101333,-13.939042,-0.948104,3,39
1.532289,-6.2153480000000005,-5.928043,3,39
2.652776,-5.865794,-3.227384,3,39
-0.737414,-3.86903,-1.4987700000000002,3,39
3.677494,-6.8761470000000005,-2.782062,3,39
0.612916,-3.744531,-0.507571,3,39
0.052672,-8.403648,-4.185065,3,39
-1.843535,-3.892972,-1.929727,3,39
-7.254430999999999,-15.102624,-2.801216,3,40
0.588974,-22.117636,-28.031313,3,40
1.3982139999999998,-12.497733,-4.213794999999999,3,40
1.762132,-15.083470000000002,-7.560888999999999,3,40
5.185841,-13.52724,-2.365471,3,40
-1.474828,0.526724,0.038307,3,40
0.086191,-10.16578,-0.565032,3,40
0.052672,-17.745823,-3.203442,3,40
-7.939172,-14.302960999999998,-13.10586,3,40
-2.48997,-8.829816000000001,3.193865,3,40
0.871489,-11.013328,0.885855,3,40
2.686294,-8.963891,-3.883395,3,40
1.197101,-10.400413,-6.23929,3,40
-4.34787,-6.133945,-2.020706,3,40
1.714248,-11.219229,1.063026,3,40
-1.94888,-3.064578,-2.513912,3,40
1.225831,-5.5545480000000005,-2.317587,3,40
0.21069,-10.802638,-1.599327,3,40
2.738967,-8.657434,4.031836,3,40
4.094085,-11.401189,-0.651223,3,40
1.647211,-8.207322999999999,-8.537724,3,40
0.277727,-7.067683000000001,-4.893748,3,40
1.364695,-8.528147,-6.382941000000001,3,40
9.141062,-9.184157,0.42138,3,40
7.953538000000001,-14.413095000000002,-2.494758,3,40
0.651223,-1.40779,4.683059,3,40
2.418144,4.994305000000001,13.445837,3,40
0.670377,4.730943,8.403648,3,40
0.866701,3.4428620000000003,9.495404,3,40
1.479617,4.314352,6.737284,3,40
2.418144,-8.571242,-1.675941,3,41
-5.861006,-6.397307,-3.375824,3,41
2.959233,-6.081272,-3.136404,3,41
-7.805097,-8.365341,-2.130839,3,41
-0.842759,-6.119579,-1.61848,3,41
-1.814805,-7.259219,-1.043872,3,41
-0.617704,-6.301539,-1.067814,3,41
-1.685518,-8.403648,0.550666,3,41
2.48997,-15.964537,-0.8379709999999999,3,41
-0.483629,-15.078682,-6.253655,3,41
-2.633622,-17.927782,-5.453991,3,41
-2.312799,-15.825673000000002,9.706094,3,41
-0.6272810000000001,-14.772224,-5.3821650000000005,3,41
2.466028,-6.856992999999999,-4.477157,3,41
-4.67827,-6.397307,-3.993528,3,41
-1.838747,-9.935937,-3.1076740000000003,3,41
0.325611,-8.619126,-3.4428620000000003,3,41
-2.604891,-4.180276,-2.652775,3,41
-2.700659,-13.340492,-3.912125,3,41
1.642422,-8.130708,-8.681376,3,41
2.930503,-8.51857,-2.236184,3,41
-0.943315,-0.943315,0.842759,3,41
-0.057461,-7.536947,-3.112462,3,41
-2.240973,-4.735731,-0.8044520000000001,3,41
0.483629,-8.561666,-3.653552,3,41
8.2169,-11.386824,-0.1005559999999999,3,41
-0.124498,-9.442732,-0.842759,3,41
2.657564,-10.381259,0.665588,3,41
1.383849,-16.093823999999998,-1.479617,3,41
1.771709,-13.642160999999998,-8.920795,3,41
5.865794,-9.840169,-1.23062,3,42
-1.446098,-4.903325,-0.512359,3,42
2.600103,-7.929596000000001,0.5841850000000001,3,42
-1.766921,-5.295974,0.766145,3,42
0.430956,-7.699753,-0.579397,3,42
0.8475469999999999,-9.337387,-3.797204,3,42
-1.8579,-7.623138000000001,9.021352,3,42
0.272939,-11.860875,-2.920926,3,42
2.499547,-7.843405000000001,-3.620033,3,42
-4.76925,-9.648633,-12.382812,3,42
2.475605,-9.993398,-6.62715,3,42
2.748544,-6.9096660000000005,-3.39019,3,42
1.264139,-7.517792999999999,0.493206,3,42
-1.086968,-5.717354,2.499547,3,42
-2.614468,-8.508992999999998,-0.071826,3,42
-1.522712,-16.82645,-2.791639,3,42
4.31914,-13.091495,-0.411803,3,42
0.430956,-15.255854,-5.688623000000001,3,42
5.061342,-14.508862,-22.663513,3,42
2.82037,-9.710882000000002,-3.806781,3,42
2.753332,-11.559206,-10.630256,3,42
0.9912,-8.935161,-0.1723829999999999,3,42
-3.600879,-3.524265,0.957681,3,42
-2.082955,-11.808203,0.229843,3,42
-1.8579,-4.3766,2.327164,3,42
-2.130839,-12.421119,-0.2585739999999999,3,42
-6.478708999999999,-20.39381,1.177947,3,42
0.35913,-22.716187,7.800308999999999,3,42
3.380613,-11.070788,-2.403778,3,42
2.806004,-10.754754,3.672706,3,42
-1.8579,-4.3766,2.327164,3,43
-2.130839,-12.421119,-0.2585739999999999,3,43
-6.478708999999999,-20.39381,1.177947,3,43
0.35913,-22.716187,7.800308999999999,3,43
3.380613,-11.070788,-2.403778,3,43
2.806004,-10.754754,3.672706,3,43
-6.478708999999999,-22.16073,0.162806,3,43
5.272033,-25.546135,-8.652645,3,43
-2.264915,-17.348385,-2.834735,3,43
-7.426813,1.345541,-2.686294,3,43
-0.694318,-15.030798,-5.501875,3,43
-0.632069,-14.848839000000002,-11.224017,3,43
3.782839,-11.597513,-2.94008,3,43
-0.507571,-5.104438,-2.111686,3,43
1.369483,-4.520251999999999,-2.863465,3,43
2.494758,-11.36767,-2.255338,3,43
2.054225,-5.640739,1.56102,3,43
-2.662352,-8.145074000000001,-5.1666870000000005,3,43
-3.318364,-8.346186999999999,1.551443,3,43
2.236184,-10.175357,3.423709,3,43
-9.528923,-19.484013,4.113238,3,43
-3.864241,-19.670761,-13.962984,3,43
1.963245,-10.242394,-2.3606830000000003,3,43
3.878607,-11.48738,-12.65575,3,43
3.026271,-8.432379,-7.244853999999999,3,43
-5.023035,-16.223110000000002,-12.464214,3,43
-0.4548979999999999,-14.882357999999998,-6.933608,3,43
9.035717,-13.206416,12.617443,3,43
-1.273715,-5.353435,-0.641646,3,43
-0.794875,-9.160215,-0.1819589999999999,3,43
3.026271,-8.432379,-7.244853999999999,3,44
-5.023035,-16.223110000000002,-12.464214,3,44
-0.4548979999999999,-14.882357999999998,-6.933608,3,44
9.035717,-13.206416,12.617443,3,44
-1.273715,-5.353435,-0.641646,3,44
-0.794875,-9.160215,-0.1819589999999999,3,44
2.336741,-11.722012,-1.321599,3,44
-6.1578870000000006,-1.489193,-0.54109,3,44
-6.904877000000001,-20.159178,-0.866701,3,44
-1.958457,-8.978256,-4.625597,3,44
0.196325,-2.643199,-0.114922,3,44
-1.728614,-4.9943040000000005,-1.192312,3,44
0.746991,-5.238512999999999,-1.043872,3,44
-1.197101,-3.68707,2.882619,3,44
-0.344765,-9.696517,0.679953,3,44
-5.386954,-16.323667999999998,4.266468,3,44
-3.787627,-8.633492,0.895431,3,44
-2.30801,-13.445837,-2.834735,3,44
-0.545878,-3.653552,6.670246000000001,3,44
2.844312,-10.486604,-1.580173,3,44
2.566584,-10.323798,-1.16837,3,44
2.63841,-7.168239999999999,-0.71826,3,44
3.907337,-4.984728,-3.821146,3,44
0.354342,-9.56723,-5.7700260000000005,3,44
0.9912,-10.290278,-5.099648999999999,3,44
-2.389413,-12.220005,-6.330269,3,44
-1.7860740000000002,-18.737022,6.244078,3,44
4.644751,-11.018116,-1.04866,3,44
-2.269703,-2.782062,2.39899,3,44
1.479617,-9.251195,-0.857124,3,44
-4.67827,-6.397307,-3.993528,3,45
-1.838747,-9.935937,-3.1076740000000003,3,45
0.325611,-8.619126,-3.4428620000000003,3,45
-2.604891,-4.180276,-2.652775,3,45
-2.700659,-13.340492,-3.912125,3,45
1.642422,-8.130708,-8.681376,3,45
2.930503,-8.51857,-2.236184,3,45
-0.943315,-0.943315,0.842759,3,45
-0.057461,-7.536947,-3.112462,3,45
-2.240973,-4.735731,-0.8044520000000001,3,45
0.483629,-8.561666,-3.653552,3,45
8.2169,-11.386824,-0.1005559999999999,3,45
-0.124498,-9.442732,-0.842759,3,45
2.657564,-10.381259,0.665588,3,45
1.383849,-16.093823999999998,-1.479617,3,45
1.771709,-13.642160999999998,-8.920795,3,45
1.024718,-5.295974,-1.484405,3,45
2.628834,-4.697424,-3.892972,3,45
2.422932,-4.544194,1.604115,3,45
-0.229843,-7.383717999999999,-6.809108999999999,3,45
2.949657,-13.354857,-3.998317,3,45
1.134852,-5.291186,-4.3766,3,45
-0.536301,-6.2153480000000005,-6.378153,3,45
2.48997,-7.809886,-3.672705,3,45
2.686294,-16.46732,-2.336741,3,45
2.5953150000000003,-15.524004,-2.437297,3,45
-6.186617,-13.532028,-3.155558,3,45
-0.536301,-11.386824,-12.243947,3,45
-5.228936,-7.862558,-3.323152,3,45
0.316035,-8.226476,-2.590526,3,45
2.48997,-15.964537,-0.8379709999999999,3,46
-0.483629,-15.078682,-6.253655,3,46
-2.633622,-17.927782,-5.453991,3,46
-2.312799,-15.825673000000002,9.706094,3,46
-0.6272810000000001,-14.772224,-5.3821650000000005,3,46
2.466028,-6.856992999999999,-4.477157,3,46
-4.67827,-6.397307,-3.993528,3,46
-1.838747,-9.935937,-3.1076740000000003,3,46
0.325611,-8.619126,-3.4428620000000003,3,46
-2.604891,-4.180276,-2.652775,3,46
-2.700659,-13.340492,-3.912125,3,46
1.642422,-8.130708,-8.681376,3,46
2.930503,-8.51857,-2.236184,3,46
-0.943315,-0.943315,0.842759,3,46
-0.057461,-7.536947,-3.112462,3,46
-2.240973,-4.735731,-0.8044520000000001,3,46
0.483629,-8.561666,-3.653552,3,46
8.2169,-11.386824,-0.1005559999999999,3,46
-0.124498,-9.442732,-0.842759,3,46
2.657564,-10.381259,0.665588,3,46
1.383849,-16.093823999999998,-1.479617,3,46
1.771709,-13.642160999999998,-8.920795,3,46
1.024718,-5.295974,-1.484405,3,46
2.628834,-4.697424,-3.892972,3,46
2.422932,-4.544194,1.604115,3,46
-0.229843,-7.383717999999999,-6.809108999999999,3,46
2.949657,-13.354857,-3.998317,3,46
1.134852,-5.291186,-4.3766,3,46
-0.536301,-6.2153480000000005,-6.378153,3,46
2.48997,-7.809886,-3.672705,3,46
-1.35033,-3.380613,-0.057461,3,47
-0.253785,-6.373365,0.205901,3,47
-1.608903,-6.502651,-3.998317,3,47
1.685518,-10.146626,-1.115698,3,47
-0.474052,-4.13718,-1.249773,3,47
-0.761356,-9.203311,-2.178723,3,47
-1.278504,-4.1419690000000005,0.253785,3,47
-0.3304,-6.105214,-3.284845,3,47
1.455675,-7.479486,-3.864241,3,47
1.613692,-9.150639,-4.151545,3,47
1.216255,-9.792285,0.636858,3,47
-2.54743,-7.086836999999999,-2.585738,3,47
-1.206678,-9.433155,-2.202665,3,47
-3.102885,-4.644751,-2.456451,3,47
0.282516,-9.251195,-0.933739,3,47
-3.20823,-4.711789,0.885855,3,47
2.418144,-8.571242,-1.675941,3,47
-5.861006,-6.397307,-3.375824,3,47
2.959233,-6.081272,-3.136404,3,47
-7.805097,-8.365341,-2.130839,3,47
-0.842759,-6.119579,-1.61848,3,47
-1.814805,-7.259219,-1.043872,3,47
-0.617704,-6.301539,-1.067814,3,47
-1.685518,-8.403648,0.550666,3,47
2.48997,-15.964537,-0.8379709999999999,3,47
-0.483629,-15.078682,-6.253655,3,47
-2.633622,-17.927782,-5.453991,3,47
-2.312799,-15.825673000000002,9.706094,3,47
-0.6272810000000001,-14.772224,-5.3821650000000005,3,47
2.466028,-6.856992999999999,-4.477157,3,47
12.650962,1.61848,10.716447,3,48
7.402872,-7.771578999999999,-4.127603,3,48
2.920926,-8.571242,-7.881711999999999,3,48
2.767697,-8.935161,-2.149993,3,48
-1.101333,-13.939042,-0.948104,3,48
1.532289,-6.2153480000000005,-5.928043,3,48
2.652776,-5.865794,-3.227384,3,48
-0.737414,-3.86903,-1.4987700000000002,3,48
3.677494,-6.8761470000000005,-2.782062,3,48
0.612916,-3.744531,-0.507571,3,48
0.052672,-8.403648,-4.185065,3,48
-1.843535,-3.892972,-1.929727,3,48
0.665588,-6.809108999999999,-1.939303,3,48
-2.011129,-4.232949,-0.919373,3,48
2.432509,-10.304645,-1.671153,3,48
0.588974,-5.999869,-2.327164,3,48
1.431733,-8.27436,-1.73819,3,48
-1.7860740000000002,-7.996633,-3.3279400000000003,3,48
0.885855,-11.468226,5.544971,3,48
-0.770933,-21.74414,-3.605668,3,48
6.670246000000001,-13.206416,-4.611232,3,48
0.675165,-17.343597,-7.225700999999999,3,48
7.771578999999999,-8.580819,12.650962,3,48
3.873819,-6.162675,-6.210559,3,48
3.193865,-12.392388,2.5953150000000003,3,48
4.951209,-25.828648,-7.991845,3,48
7.484275,-14.887146,2.973599,3,48
4.797981,-19.560625,-9.227253,3,48
-0.933739,-9.188946,10.007763,3,48
4.347871,-7.354986999999999,-6.277597,3,48
6.789956,-6.947972999999999,-3.007117,3,49
0.933739,-4.606444000000001,-0.512359,3,49
3.2896330000000003,-7.469908999999999,-0.0430959999999999,3,49
-1.6519990000000002,-17.535133,-2.2505490000000004,3,49
-6.320692,-6.196194,1.896208,3,49
-1.331176,-17.956512,-0.632069,3,49
12.133814,-18.703505,-7.508216,3,49
6.588842999999999,-10.568007,-2.60968,3,49
7.996633999999999,-5.918466,-6.646304,3,49
0.2585739999999999,-8.657434,-2.351106,3,49
-1.94888,-5.003881,2.006341,3,49
1.364695,-8.054094000000001,-3.222595,3,49
2.0302830000000003,-13.613431,-2.0302830000000003,3,49
12.411542,-13.881581,-4.386177,3,49
4.879383,-13.110648,-3.5960910000000004,3,49
1.201889,-17.908628,0.004788,3,49
-6.847417,-16.74026,4.13718,3,49
-4.003105000000001,1.249773,10.716447,3,49
3.0502130000000003,-11.482592,-4.683058,3,49
8.532935,-14.571112,-11.492168,3,49
2.1883,-8.987833,-1.273715,3,49
1.101333,-3.648763,0.416591,3,49
4.276045,-9.346964,0.502782,3,49
-3.77805,-3.605668,2.475605,3,49
2.236184,-7.388506,-1.173159,3,49
-4.094085,-1.441309,2.13084,3,49
2.011129,-12.564771,0.8236049999999999,3,49
-0.071826,-13.733141,2.652776,3,49
1.996764,-6.062118,-6.210559,3,49
3.438074,-7.139508999999999,0.292093,3,49
-5.755661,-13.891158,1.273715,3,50
-7.196969999999999,-11.358092999999998,1.685518,3,50
-10.036493,-12.765883,-0.6464340000000001,3,50
-0.158017,-2.930503,-7.479486,3,50
-2.604891,-7.661445,-0.11971,3,50
-1.40779,-13.340492,-3.916914,3,50
-2.255338,-14.398729,-2.801216,3,50
-7.517792999999999,-11.947066,-1.656788,3,50
-1.996764,1.393425,2.652776,3,50
-4.189853,-10.275913,1.1300629999999998,3,50
0.8379709999999999,-11.693281,-1.1300629999999998,3,50
-3.122039,-11.985373,-1.393425,3,50
-2.078167,-4.209007,-1.244985,3,50
-1.877054,-6.943185000000001,-1.915361,3,50
-5.473145,-10.730812,-1.077391,3,50
2.987964,-5.018246,1.647211,3,50
0.675165,-11.60709,-2.662352,3,50
-1.278504,-2.700659,0.924162,3,50
-4.424484,-10.726024,-1.082179,3,50
0.646435,-0.641646,-1.04866,3,50
-1.623269,-6.603208,0.071826,3,50
-4.323928,-2.671929,3.485958,3,50
-5.228936,-3.557784,-0.038307,3,50
-3.08852,-14.130578,0.215478,3,50
-3.021482,-8.39886,1.312023,3,50
-11.238382,-12.018892,-2.762909,3,50
-0.488417,-9.356541,0.11971,3,50
-7.675811,-17.00362,-1.5466540000000002,3,50
-0.521936,0.708684,-5.0517650000000005,3,50
-3.715801,-5.645528,0.670377,3,50
4.276045,-9.346964,0.502782,3,51
-3.77805,-3.605668,2.475605,3,51
2.236184,-7.388506,-1.173159,3,51
-4.094085,-1.441309,2.13084,3,51
2.011129,-12.564771,0.8236049999999999,3,51
-0.071826,-13.733141,2.652776,3,51
1.996764,-6.062118,-6.210559,3,51
3.438074,-7.139508999999999,0.292093,3,51
12.650962,1.61848,10.716447,3,51
7.402872,-7.771578999999999,-4.127603,3,51
2.920926,-8.571242,-7.881711999999999,3,51
2.767697,-8.935161,-2.149993,3,51
-1.101333,-13.939042,-0.948104,3,51
1.532289,-6.2153480000000005,-5.928043,3,51
2.652776,-5.865794,-3.227384,3,51
-0.737414,-3.86903,-1.4987700000000002,3,51
3.677494,-6.8761470000000005,-2.782062,3,51
0.612916,-3.744531,-0.507571,3,51
0.052672,-8.403648,-4.185065,3,51
-1.843535,-3.892972,-1.929727,3,51
0.665588,-6.809108999999999,-1.939303,3,51
-2.011129,-4.232949,-0.919373,3,51
2.432509,-10.304645,-1.671153,3,51
0.588974,-5.999869,-2.327164,3,51
1.431733,-8.27436,-1.73819,3,51
-1.7860740000000002,-7.996633,-3.3279400000000003,3,51
0.885855,-11.468226,5.544971,3,51
-0.770933,-21.74414,-3.605668,3,51
6.670246000000001,-13.206416,-4.611232,3,51
0.675165,-17.343597,-7.225700999999999,3,51
4.491523,-7.393294999999999,-1.58975,3,52
4.97994,-10.127473,-14.422671,3,52
1.106121,-7.115567,2.240973,3,52
1.355118,-8.667010000000001,1.479617,3,52
2.149993,-7.474697,5.93762,3,52
8.288725999999999,-10.783484,-3.165135,3,52
-0.991199,-19.416977,4.074930999999999,3,52
7.062895,-8.063671000000001,-0.972046,3,52
0.766145,-4.788403,-0.981623,3,52
0.02873,-6.545747,-0.6464340000000001,3,52
6.952762,-11.247959,0.344765,3,52
6.895301,-13.982138,-2.504335,3,52
-1.417367,-19.349937,0.177171,3,52
0.320823,-3.715801,-9.653421,3,52
-4.649539,-15.05474,1.192313,3,52
4.242526,-16.539145,-10.836157,3,52
6.789956,-6.947972999999999,-3.007117,3,52
0.933739,-4.606444000000001,-0.512359,3,52
3.2896330000000003,-7.469908999999999,-0.0430959999999999,3,52
-1.6519990000000002,-17.535133,-2.2505490000000004,3,52
-6.320692,-6.196194,1.896208,3,52
-1.331176,-17.956512,-0.632069,3,52
12.133814,-18.703505,-7.508216,3,52
6.588842999999999,-10.568007,-2.60968,3,52
7.996633999999999,-5.918466,-6.646304,3,52
0.2585739999999999,-8.657434,-2.351106,3,52
-1.94888,-5.003881,2.006341,3,52
1.364695,-8.054094000000001,-3.222595,3,52
2.0302830000000003,-13.613431,-2.0302830000000003,3,52
12.411542,-13.881581,-4.386177,3,52
3.380613,-11.070788,-2.403778,3,53
2.806004,-10.754754,3.672706,3,53
-6.478708999999999,-22.16073,0.162806,3,53
5.272033,-25.546135,-8.652645,3,53
-2.264915,-17.348385,-2.834735,3,53
-7.426813,1.345541,-2.686294,3,53
-0.694318,-15.030798,-5.501875,3,53
-0.632069,-14.848839000000002,-11.224017,3,53
3.782839,-11.597513,-2.94008,3,53
-0.507571,-5.104438,-2.111686,3,53
1.369483,-4.520251999999999,-2.863465,3,53
2.494758,-11.36767,-2.255338,3,53
2.054225,-5.640739,1.56102,3,53
-2.662352,-8.145074000000001,-5.1666870000000005,3,53
-3.318364,-8.346186999999999,1.551443,3,53
2.236184,-10.175357,3.423709,3,53
-9.528923,-19.484013,4.113238,3,53
-3.864241,-19.670761,-13.962984,3,53
1.963245,-10.242394,-2.3606830000000003,3,53
3.878607,-11.48738,-12.65575,3,53
3.026271,-8.432379,-7.244853999999999,3,53
-5.023035,-16.223110000000002,-12.464214,3,53
-0.4548979999999999,-14.882357999999998,-6.933608,3,53
9.035717,-13.206416,12.617443,3,53
-1.273715,-5.353435,-0.641646,3,53
-0.794875,-9.160215,-0.1819589999999999,3,53
2.336741,-11.722012,-1.321599,3,53
-6.1578870000000006,-1.489193,-0.54109,3,53
-6.904877000000001,-20.159178,-0.866701,3,53
-1.958457,-8.978256,-4.625597,3,53
2.566584,-10.323798,-1.16837,3,54
2.63841,-7.168239999999999,-0.71826,3,54
3.907337,-4.984728,-3.821146,3,54
0.354342,-9.56723,-5.7700260000000005,3,54
0.9912,-10.290278,-5.099648999999999,3,54
-2.389413,-12.220005,-6.330269,3,54
-1.7860740000000002,-18.737022,6.244078,3,54
4.644751,-11.018116,-1.04866,3,54
-2.269703,-2.782062,2.39899,3,54
1.479617,-9.251195,-0.857124,3,54
5.152323,-11.702858,-2.27928,3,54
1.637634,-22.720974,-10.491392,3,54
-2.346318,-3.270479,1.063026,3,54
-1.685518,-7.580042,-1.623269,3,54
-1.80044,-7.465121000000001,-3.069367,3,54
-0.124498,-12.559982000000002,6.7516490000000005,3,54
1.7525560000000002,-17.501614,-3.801992,3,54
2.331953,-9.744401,-7.407660000000001,3,54
3.222596,-8.920795,-3.08852,3,54
-3.457227,-2.715025,0.148441,3,54
2.264915,-9.931149,-4.659116,3,54
0.9912,-10.903194,-8.183380999999999,3,54
2.226608,-8.044516999999999,-2.341529,3,54
-1.647211,-11.851298,6.775591,3,54
8.39886,-13.771448,-2.566584,3,54
2.494758,-10.328587,-8.690952000000001,3,54
0.8236049999999999,-7.383717999999999,-3.5960910000000004,3,54
-6.224924,-12.23437,-26.230873,3,54
1.273715,-6.502651,-3.572149,3,54
0.7230489999999999,-6.871359,-4.079719,3,54
-1.206678,-9.433155,-2.202665,3,55
-3.102885,-4.644751,-2.456451,3,55
0.282516,-9.251195,-0.933739,3,55
-3.20823,-4.711789,0.885855,3,55
2.418144,-8.571242,-1.675941,3,55
-5.861006,-6.397307,-3.375824,3,55
2.959233,-6.081272,-3.136404,3,55
-7.805097,-8.365341,-2.130839,3,55
-0.842759,-6.119579,-1.61848,3,55
-1.814805,-7.259219,-1.043872,3,55
-0.617704,-6.301539,-1.067814,3,55
-1.685518,-8.403648,0.550666,3,55
2.48997,-15.964537,-0.8379709999999999,3,55
-0.483629,-15.078682,-6.253655,3,55
-2.633622,-17.927782,-5.453991,3,55
-2.312799,-15.825673000000002,9.706094,3,55
-0.6272810000000001,-14.772224,-5.3821650000000005,3,55
2.466028,-6.856992999999999,-4.477157,3,55
-4.67827,-6.397307,-3.993528,3,55
-1.838747,-9.935937,-3.1076740000000003,3,55
0.325611,-8.619126,-3.4428620000000003,3,55
-2.604891,-4.180276,-2.652775,3,55
-2.700659,-13.340492,-3.912125,3,55
1.642422,-8.130708,-8.681376,3,55
2.930503,-8.51857,-2.236184,3,55
-0.943315,-0.943315,0.842759,3,55
-0.057461,-7.536947,-3.112462,3,55
-2.240973,-4.735731,-0.8044520000000001,3,55
0.483629,-8.561666,-3.653552,3,55
8.2169,-11.386824,-0.1005559999999999,3,55
-4.10845,-9.32781,0.21069,3,56
-4.223372,-17.922995,-4.654328,3,56
-8.825027,-12.411542,-3.476381,3,56
-3.557784,-5.492298,-0.1005559999999999,3,56
-3.998317,-14.302960999999998,-0.919373,3,56
-1.297657,-1.517924,-2.149993,3,56
-5.736507,-15.35641,-1.039083,3,56
1.024718,-3.825934,-3.1795,3,56
-1.94888,-14.389153,-3.08852,3,56
-3.203442,-1.072602,-0.071826,3,56
-6.842628,-6.809108999999999,-1.934515,3,56
-4.984728,-8.633492,-2.906561,3,56
-2.911349,-8.556877,-1.848324,3,56
-3.002329,-13.148955,0.646435,3,56
-5.06613,-9.428367,0.732626,3,56
-8.614338,-15.021221,-1.436521,3,56
0.349553,-6.5792660000000005,-6.995857000000001,3,56
-2.920926,-10.726024,-0.148441,3,56
-3.653552,-10.951078,-4.003105000000001,3,56
-9.332599,-18.492813,-6.440402,3,56
-5.755661,-13.891158,1.273715,3,56
-7.196969999999999,-11.358092999999998,1.685518,3,56
-10.036493,-12.765883,-0.6464340000000001,3,56
-0.158017,-2.930503,-7.479486,3,56
-2.604891,-7.661445,-0.11971,3,56
-1.40779,-13.340492,-3.916914,3,56
-2.255338,-14.398729,-2.801216,3,56
-7.517792999999999,-11.947066,-1.656788,3,56
-1.996764,1.393425,2.652776,3,56
-4.189853,-10.275913,1.1300629999999998,3,56
-2.346318,-3.270479,1.063026,3,57
-1.685518,-7.580042,-1.623269,3,57
-1.80044,-7.465121000000001,-3.069367,3,57
-0.124498,-12.559982000000002,6.7516490000000005,3,57
1.7525560000000002,-17.501614,-3.801992,3,57
2.331953,-9.744401,-7.407660000000001,3,57
3.222596,-8.920795,-3.08852,3,57
-3.457227,-2.715025,0.148441,3,57
2.264915,-9.931149,-4.659116,3,57
0.9912,-10.903194,-8.183380999999999,3,57
2.226608,-8.044516999999999,-2.341529,3,57
-1.647211,-11.851298,6.775591,3,57
8.39886,-13.771448,-2.566584,3,57
2.494758,-10.328587,-8.690952000000001,3,57
0.8236049999999999,-7.383717999999999,-3.5960910000000004,3,57
-6.224924,-12.23437,-26.230873,3,57
1.273715,-6.502651,-3.572149,3,57
0.7230489999999999,-6.871359,-4.079719,3,57
2.226608,-7.575253999999999,-12.555194,3,57
3.284845,-11.96622,-3.892972,3,57
3.945645,-11.760319,-8.09719,3,57
2.801216,-9.32781,-5.133168,3,57
-1.35033,-3.380613,-0.057461,3,57
-0.253785,-6.373365,0.205901,3,57
-1.608903,-6.502651,-3.998317,3,57
1.685518,-10.146626,-1.115698,3,57
-0.474052,-4.13718,-1.249773,3,57
-0.761356,-9.203311,-2.178723,3,57
-1.278504,-4.1419690000000005,0.253785,3,57
-0.3304,-6.105214,-3.284845,3,57
-2.633622,-17.927782,-5.453991,3,58
-2.312799,-15.825673000000002,9.706094,3,58
-0.6272810000000001,-14.772224,-5.3821650000000005,3,58
2.466028,-6.856992999999999,-4.477157,3,58
-4.67827,-6.397307,-3.993528,3,58
-1.838747,-9.935937,-3.1076740000000003,3,58
0.325611,-8.619126,-3.4428620000000003,3,58
-2.604891,-4.180276,-2.652775,3,58
-2.700659,-13.340492,-3.912125,3,58
1.642422,-8.130708,-8.681376,3,58
2.930503,-8.51857,-2.236184,3,58
-0.943315,-0.943315,0.842759,3,58
-0.057461,-7.536947,-3.112462,3,58
-2.240973,-4.735731,-0.8044520000000001,3,58
0.483629,-8.561666,-3.653552,3,58
8.2169,-11.386824,-0.1005559999999999,3,58
-0.124498,-9.442732,-0.842759,3,58
2.657564,-10.381259,0.665588,3,58
1.383849,-16.093823999999998,-1.479617,3,58
1.771709,-13.642160999999998,-8.920795,3,58
1.024718,-5.295974,-1.484405,3,58
2.628834,-4.697424,-3.892972,3,58
2.422932,-4.544194,1.604115,3,58
-0.229843,-7.383717999999999,-6.809108999999999,3,58
2.949657,-13.354857,-3.998317,3,58
1.134852,-5.291186,-4.3766,3,58
-0.536301,-6.2153480000000005,-6.378153,3,58
2.48997,-7.809886,-3.672705,3,58
2.686294,-16.46732,-2.336741,3,58
2.5953150000000003,-15.524004,-2.437297,3,58
5.061342,-13.785813,10.333375,3,59
2.499547,-4.788403,0.019154,3,59
5.923255,-18.195932,10.486604,3,59
2.5953150000000003,-7.762002000000001,-10.606314,3,59
-6.287173,-20.60929,-38.08696,3,59
1.4987700000000002,-14.719551999999998,-5.975927,3,59
4.936844000000001,-19.177555,17.492037,3,59
5.00867,-9.591172,-1.522712,3,59
0.21069,-4.065354,1.5370780000000002,3,59
-0.47884,-12.210428,-0.301669,3,59
-0.153229,-10.213664,-1.7525560000000002,3,59
0.6272810000000001,-7.627927000000001,-3.270479,3,59
1.177947,-5.415684,-2.059013,3,59
3.466804,-5.406107,-2.633622,3,59
0.057461,-6.445191,-3.069367,3,59
5.88016,-6.900089,-3.509899,3,59
4.774039,-9.251195,-2.600103,3,59
0.766145,-4.089296,-0.833182,3,59
5.865794,-9.840169,-1.23062,3,59
-1.446098,-4.903325,-0.512359,3,59
2.600103,-7.929596000000001,0.5841850000000001,3,59
-1.766921,-5.295974,0.766145,3,59
0.430956,-7.699753,-0.579397,3,59
0.8475469999999999,-9.337387,-3.797204,3,59
-1.8579,-7.623138000000001,9.021352,3,59
0.272939,-11.860875,-2.920926,3,59
2.499547,-7.843405000000001,-3.620033,3,59
-4.76925,-9.648633,-12.382812,3,59
2.475605,-9.993398,-6.62715,3,59
2.748544,-6.9096660000000005,-3.39019,3,59
3.366248,-16.82645,1.1683709999999998,3,60
7.015011,-16.845604,-7.517792999999999,3,60
4.697424,-9.074024,-0.866701,3,60
-1.5466540000000002,-1.508347,0.3304,3,60
3.830723,-12.014104,-1.158794,3,60
2.418144,-9.002198,0.8236049999999999,3,60
3.529053,-7.436389999999999,1.905785,3,60
0.986411,-17.3005,-0.3830719999999999,3,60
-4.582502,-7.862558,9.792285,3,60
1.910573,-5.985504,-1.599327,3,60
4.458004,-6.914453999999999,-5.401319,3,60
2.475605,-8.705316999999999,-0.3734949999999999,3,60
-1.120486,-5.803545,2.044648,3,60
-2.39899,-8.451532,4.055778,3,60
5.64074,-8.566454,1.029507,3,60
-0.8283940000000001,-0.483629,10.582372,3,60
4.491523,-7.393294999999999,-1.58975,3,60
4.97994,-10.127473,-14.422671,3,60
1.106121,-7.115567,2.240973,3,60
1.355118,-8.667010000000001,1.479617,3,60
2.149993,-7.474697,5.93762,3,60
8.288725999999999,-10.783484,-3.165135,3,60
-0.991199,-19.416977,4.074930999999999,3,60
7.062895,-8.063671000000001,-0.972046,3,60
0.766145,-4.788403,-0.981623,3,60
0.02873,-6.545747,-0.6464340000000001,3,60
6.952762,-11.247959,0.344765,3,60
6.895301,-13.982138,-2.504335,3,60
-1.417367,-19.349937,0.177171,3,60
0.320823,-3.715801,-9.653421,3,60
1.369483,-4.520251999999999,-2.863465,3,61
2.494758,-11.36767,-2.255338,3,61
2.054225,-5.640739,1.56102,3,61
-2.662352,-8.145074000000001,-5.1666870000000005,3,61
-3.318364,-8.346186999999999,1.551443,3,61
2.236184,-10.175357,3.423709,3,61
-9.528923,-19.484013,4.113238,3,61
-3.864241,-19.670761,-13.962984,3,61
1.963245,-10.242394,-2.3606830000000003,3,61
3.878607,-11.48738,-12.65575,3,61
3.026271,-8.432379,-7.244853999999999,3,61
-5.023035,-16.223110000000002,-12.464214,3,61
-0.4548979999999999,-14.882357999999998,-6.933608,3,61
9.035717,-13.206416,12.617443,3,61
-1.273715,-5.353435,-0.641646,3,61
-0.794875,-9.160215,-0.1819589999999999,3,61
2.336741,-11.722012,-1.321599,3,61
-6.1578870000000006,-1.489193,-0.54109,3,61
-6.904877000000001,-20.159178,-0.866701,3,61
-1.958457,-8.978256,-4.625597,3,61
0.196325,-2.643199,-0.114922,3,61
-1.728614,-4.9943040000000005,-1.192312,3,61
0.746991,-5.238512999999999,-1.043872,3,61
-1.197101,-3.68707,2.882619,3,61
-0.344765,-9.696517,0.679953,3,61
-5.386954,-16.323667999999998,4.266468,3,61
-3.787627,-8.633492,0.895431,3,61
-2.30801,-13.445837,-2.834735,3,61
-0.545878,-3.653552,6.670246000000001,3,61
2.844312,-10.486604,-1.580173,3,61
-1.80044,-7.465121000000001,-3.069367,3,62
-0.124498,-12.559982000000002,6.7516490000000005,3,62
1.7525560000000002,-17.501614,-3.801992,3,62
2.331953,-9.744401,-7.407660000000001,3,62
3.222596,-8.920795,-3.08852,3,62
-3.457227,-2.715025,0.148441,3,62
2.264915,-9.931149,-4.659116,3,62
0.9912,-10.903194,-8.183380999999999,3,62
2.226608,-8.044516999999999,-2.341529,3,62
-1.647211,-11.851298,6.775591,3,62
8.39886,-13.771448,-2.566584,3,62
2.494758,-10.328587,-8.690952000000001,3,62
0.8236049999999999,-7.383717999999999,-3.5960910000000004,3,62
-6.224924,-12.23437,-26.230873,3,62
1.273715,-6.502651,-3.572149,3,62
0.7230489999999999,-6.871359,-4.079719,3,62
2.226608,-7.575253999999999,-12.555194,3,62
3.284845,-11.96622,-3.892972,3,62
3.945645,-11.760319,-8.09719,3,62
2.801216,-9.32781,-5.133168,3,62
-1.35033,-3.380613,-0.057461,3,62
-0.253785,-6.373365,0.205901,3,62
-1.608903,-6.502651,-3.998317,3,62
1.685518,-10.146626,-1.115698,3,62
-0.474052,-4.13718,-1.249773,3,62
-0.761356,-9.203311,-2.178723,3,62
-1.278504,-4.1419690000000005,0.253785,3,62
-0.3304,-6.105214,-3.284845,3,62
1.455675,-7.479486,-3.864241,3,62
1.613692,-9.150639,-4.151545,3,62
7.484275,-14.887146,2.973599,3,63
4.797981,-19.560625,-9.227253,3,63
-0.933739,-9.188946,10.007763,3,63
4.347871,-7.354986999999999,-6.277597,3,63
5.061342,-13.785813,10.333375,3,63
2.499547,-4.788403,0.019154,3,63
5.923255,-18.195932,10.486604,3,63
2.5953150000000003,-7.762002000000001,-10.606314,3,63
-6.287173,-20.60929,-38.08696,3,63
1.4987700000000002,-14.719551999999998,-5.975927,3,63
4.936844000000001,-19.177555,17.492037,3,63
5.00867,-9.591172,-1.522712,3,63
0.21069,-4.065354,1.5370780000000002,3,63
-0.47884,-12.210428,-0.301669,3,63
-0.153229,-10.213664,-1.7525560000000002,3,63
0.6272810000000001,-7.627927000000001,-3.270479,3,63
1.177947,-5.415684,-2.059013,3,63
3.466804,-5.406107,-2.633622,3,63
0.057461,-6.445191,-3.069367,3,63
5.88016,-6.900089,-3.509899,3,63
4.774039,-9.251195,-2.600103,3,63
0.766145,-4.089296,-0.833182,3,63
5.865794,-9.840169,-1.23062,3,63
-1.446098,-4.903325,-0.512359,3,63
2.600103,-7.929596000000001,0.5841850000000001,3,63
-1.766921,-5.295974,0.766145,3,63
0.430956,-7.699753,-0.579397,3,63
0.8475469999999999,-9.337387,-3.797204,3,63
-1.8579,-7.623138000000001,9.021352,3,63
0.272939,-11.860875,-2.920926,3,63
-10.036493,-12.765883,-0.6464340000000001,3,64
-0.158017,-2.930503,-7.479486,3,64
-2.604891,-7.661445,-0.11971,3,64
-1.40779,-13.340492,-3.916914,3,64
-2.255338,-14.398729,-2.801216,3,64
-7.517792999999999,-11.947066,-1.656788,3,64
-1.996764,1.393425,2.652776,3,64
-4.189853,-10.275913,1.1300629999999998,3,64
0.8379709999999999,-11.693281,-1.1300629999999998,3,64
-3.122039,-11.985373,-1.393425,3,64
-2.078167,-4.209007,-1.244985,3,64
-1.877054,-6.943185000000001,-1.915361,3,64
-5.473145,-10.730812,-1.077391,3,64
2.987964,-5.018246,1.647211,3,64
0.675165,-11.60709,-2.662352,3,64
-1.278504,-2.700659,0.924162,3,64
-4.424484,-10.726024,-1.082179,3,64
0.646435,-0.641646,-1.04866,3,64
-1.623269,-6.603208,0.071826,3,64
-4.323928,-2.671929,3.485958,3,64
-5.228936,-3.557784,-0.038307,3,64
-3.08852,-14.130578,0.215478,3,64
-3.021482,-8.39886,1.312023,3,64
-11.238382,-12.018892,-2.762909,3,64
-0.488417,-9.356541,0.11971,3,64
-7.675811,-17.00362,-1.5466540000000002,3,64
-0.521936,0.708684,-5.0517650000000005,3,64
-3.715801,-5.645528,0.670377,3,64
-1.666364,-9.121908,-2.753332,3,64
-6.354211,-5.717354,-0.579397,3,64
2.1883,-8.987833,-1.273715,3,65
1.101333,-3.648763,0.416591,3,65
4.276045,-9.346964,0.502782,3,65
-3.77805,-3.605668,2.475605,3,65
2.236184,-7.388506,-1.173159,3,65
-4.094085,-1.441309,2.13084,3,65
2.011129,-12.564771,0.8236049999999999,3,65
-0.071826,-13.733141,2.652776,3,65
1.996764,-6.062118,-6.210559,3,65
3.438074,-7.139508999999999,0.292093,3,65
12.650962,1.61848,10.716447,3,65
7.402872,-7.771578999999999,-4.127603,3,65
2.920926,-8.571242,-7.881711999999999,3,65
2.767697,-8.935161,-2.149993,3,65
-1.101333,-13.939042,-0.948104,3,65
1.532289,-6.2153480000000005,-5.928043,3,65
2.652776,-5.865794,-3.227384,3,65
-0.737414,-3.86903,-1.4987700000000002,3,65
3.677494,-6.8761470000000005,-2.782062,3,65
0.612916,-3.744531,-0.507571,3,65
0.052672,-8.403648,-4.185065,3,65
-1.843535,-3.892972,-1.929727,3,65
0.665588,-6.809108999999999,-1.939303,3,65
-2.011129,-4.232949,-0.919373,3,65
2.432509,-10.304645,-1.671153,3,65
0.588974,-5.999869,-2.327164,3,65
1.431733,-8.27436,-1.73819,3,65
-1.7860740000000002,-7.996633,-3.3279400000000003,3,65
0.885855,-11.468226,5.544971,3,65
-0.770933,-21.74414,-3.605668,3,65
4.936844000000001,-19.177555,17.492037,3,66
5.00867,-9.591172,-1.522712,3,66
0.21069,-4.065354,1.5370780000000002,3,66
-0.47884,-12.210428,-0.301669,3,66
-0.153229,-10.213664,-1.7525560000000002,3,66
0.6272810000000001,-7.627927000000001,-3.270479,3,66
1.177947,-5.415684,-2.059013,3,66
3.466804,-5.406107,-2.633622,3,66
0.057461,-6.445191,-3.069367,3,66
5.88016,-6.900089,-3.509899,3,66
4.774039,-9.251195,-2.600103,3,66
0.766145,-4.089296,-0.833182,3,66
5.865794,-9.840169,-1.23062,3,66
-1.446098,-4.903325,-0.512359,3,66
2.600103,-7.929596000000001,0.5841850000000001,3,66
-1.766921,-5.295974,0.766145,3,66
0.430956,-7.699753,-0.579397,3,66
0.8475469999999999,-9.337387,-3.797204,3,66
-1.8579,-7.623138000000001,9.021352,3,66
0.272939,-11.860875,-2.920926,3,66
2.499547,-7.843405000000001,-3.620033,3,66
-4.76925,-9.648633,-12.382812,3,66
2.475605,-9.993398,-6.62715,3,66
2.748544,-6.9096660000000005,-3.39019,3,66
1.264139,-7.517792999999999,0.493206,3,66
-1.086968,-5.717354,2.499547,3,66
-2.614468,-8.508992999999998,-0.071826,3,66
-1.522712,-16.82645,-2.791639,3,66
4.31914,-13.091495,-0.411803,3,66
0.430956,-15.255854,-5.688623000000001,3,66
2.264915,-9.931149,-4.659116,3,67
0.9912,-10.903194,-8.183380999999999,3,67
2.226608,-8.044516999999999,-2.341529,3,67
-1.647211,-11.851298,6.775591,3,67
8.39886,-13.771448,-2.566584,3,67
2.494758,-10.328587,-8.690952000000001,3,67
0.8236049999999999,-7.383717999999999,-3.5960910000000004,3,67
-6.224924,-12.23437,-26.230873,3,67
1.273715,-6.502651,-3.572149,3,67
0.7230489999999999,-6.871359,-4.079719,3,67
2.226608,-7.575253999999999,-12.555194,3,67
3.284845,-11.96622,-3.892972,3,67
3.945645,-11.760319,-8.09719,3,67
2.801216,-9.32781,-5.133168,3,67
-1.35033,-3.380613,-0.057461,3,67
-0.253785,-6.373365,0.205901,3,67
-1.608903,-6.502651,-3.998317,3,67
1.685518,-10.146626,-1.115698,3,67
-0.474052,-4.13718,-1.249773,3,67
-0.761356,-9.203311,-2.178723,3,67
-1.278504,-4.1419690000000005,0.253785,3,67
-0.3304,-6.105214,-3.284845,3,67
1.455675,-7.479486,-3.864241,3,67
1.613692,-9.150639,-4.151545,3,67
1.216255,-9.792285,0.636858,3,67
-2.54743,-7.086836999999999,-2.585738,3,67
-1.206678,-9.433155,-2.202665,3,67
-3.102885,-4.644751,-2.456451,3,67
0.282516,-9.251195,-0.933739,3,67
-3.20823,-4.711789,0.885855,3,67
5.152323,-11.702858,-2.27928,3,68
1.637634,-22.720974,-10.491392,3,68
-2.346318,-3.270479,1.063026,3,68
-1.685518,-7.580042,-1.623269,3,68
-1.80044,-7.465121000000001,-3.069367,3,68
-0.124498,-12.559982000000002,6.7516490000000005,3,68
1.7525560000000002,-17.501614,-3.801992,3,68
2.331953,-9.744401,-7.407660000000001,3,68
3.222596,-8.920795,-3.08852,3,68
-3.457227,-2.715025,0.148441,3,68
2.264915,-9.931149,-4.659116,3,68
0.9912,-10.903194,-8.183380999999999,3,68
2.226608,-8.044516999999999,-2.341529,3,68
-1.647211,-11.851298,6.775591,3,68
8.39886,-13.771448,-2.566584,3,68
2.494758,-10.328587,-8.690952000000001,3,68
0.8236049999999999,-7.383717999999999,-3.5960910000000004,3,68
-6.224924,-12.23437,-26.230873,3,68
1.273715,-6.502651,-3.572149,3,68
0.7230489999999999,-6.871359,-4.079719,3,68
2.226608,-7.575253999999999,-12.555194,3,68
3.284845,-11.96622,-3.892972,3,68
3.945645,-11.760319,-8.09719,3,68
2.801216,-9.32781,-5.133168,3,68
-1.35033,-3.380613,-0.057461,3,68
-0.253785,-6.373365,0.205901,3,68
-1.608903,-6.502651,-3.998317,3,68
1.685518,-10.146626,-1.115698,3,68
-0.474052,-4.13718,-1.249773,3,68
-0.761356,-9.203311,-2.178723,3,68
2.753332,-11.559206,-10.630256,3,69
0.9912,-8.935161,-0.1723829999999999,3,69
-3.600879,-3.524265,0.957681,3,69
-2.082955,-11.808203,0.229843,3,69
-1.8579,-4.3766,2.327164,3,69
-2.130839,-12.421119,-0.2585739999999999,3,69
-6.478708999999999,-20.39381,1.177947,3,69
0.35913,-22.716187,7.800308999999999,3,69
3.380613,-11.070788,-2.403778,3,69
2.806004,-10.754754,3.672706,3,69
-6.478708999999999,-22.16073,0.162806,3,69
5.272033,-25.546135,-8.652645,3,69
-2.264915,-17.348385,-2.834735,3,69
-7.426813,1.345541,-2.686294,3,69
-0.694318,-15.030798,-5.501875,3,69
-0.632069,-14.848839000000002,-11.224017,3,69
3.782839,-11.597513,-2.94008,3,69
-0.507571,-5.104438,-2.111686,3,69
1.369483,-4.520251999999999,-2.863465,3,69
2.494758,-11.36767,-2.255338,3,69
2.054225,-5.640739,1.56102,3,69
-2.662352,-8.145074000000001,-5.1666870000000005,3,69
-3.318364,-8.346186999999999,1.551443,3,69
2.236184,-10.175357,3.423709,3,69
-9.528923,-19.484013,4.113238,3,69
-3.864241,-19.670761,-13.962984,3,69
1.963245,-10.242394,-2.3606830000000003,3,69
3.878607,-11.48738,-12.65575,3,69
3.026271,-8.432379,-7.244853999999999,3,69
-5.023035,-16.223110000000002,-12.464214,3,69
-6.320692,-6.196194,1.896208,3,70
-1.331176,-17.956512,-0.632069,3,70
12.133814,-18.703505,-7.508216,3,70
6.588842999999999,-10.568007,-2.60968,3,70
7.996633999999999,-5.918466,-6.646304,3,70
0.2585739999999999,-8.657434,-2.351106,3,70
-1.94888,-5.003881,2.006341,3,70
1.364695,-8.054094000000001,-3.222595,3,70
2.0302830000000003,-13.613431,-2.0302830000000003,3,70
12.411542,-13.881581,-4.386177,3,70
4.879383,-13.110648,-3.5960910000000004,3,70
1.201889,-17.908628,0.004788,3,70
-6.847417,-16.74026,4.13718,3,70
-4.003105000000001,1.249773,10.716447,3,70
3.0502130000000003,-11.482592,-4.683058,3,70
8.532935,-14.571112,-11.492168,3,70
2.1883,-8.987833,-1.273715,3,70
1.101333,-3.648763,0.416591,3,70
4.276045,-9.346964,0.502782,3,70
-3.77805,-3.605668,2.475605,3,70
2.236184,-7.388506,-1.173159,3,70
-4.094085,-1.441309,2.13084,3,70
2.011129,-12.564771,0.8236049999999999,3,70
-0.071826,-13.733141,2.652776,3,70
1.996764,-6.062118,-6.210559,3,70
3.438074,-7.139508999999999,0.292093,3,70
12.650962,1.61848,10.716447,3,70
7.402872,-7.771578999999999,-4.127603,3,70
2.920926,-8.571242,-7.881711999999999,3,70
2.767697,-8.935161,-2.149993,3,70
2.226608,-8.044516999999999,-2.341529,3,71
-1.647211,-11.851298,6.775591,3,71
8.39886,-13.771448,-2.566584,3,71
2.494758,-10.328587,-8.690952000000001,3,71
0.8236049999999999,-7.383717999999999,-3.5960910000000004,3,71
-6.224924,-12.23437,-26.230873,3,71
1.273715,-6.502651,-3.572149,3,71
0.7230489999999999,-6.871359,-4.079719,3,71
2.226608,-7.575253999999999,-12.555194,3,71
3.284845,-11.96622,-3.892972,3,71
3.945645,-11.760319,-8.09719,3,71
2.801216,-9.32781,-5.133168,3,71
-1.35033,-3.380613,-0.057461,3,71
-0.253785,-6.373365,0.205901,3,71
-1.608903,-6.502651,-3.998317,3,71
1.685518,-10.146626,-1.115698,3,71
-0.474052,-4.13718,-1.249773,3,71
-0.761356,-9.203311,-2.178723,3,71
-1.278504,-4.1419690000000005,0.253785,3,71
-0.3304,-6.105214,-3.284845,3,71
1.455675,-7.479486,-3.864241,3,71
1.613692,-9.150639,-4.151545,3,71
1.216255,-9.792285,0.636858,3,71
-2.54743,-7.086836999999999,-2.585738,3,71
-1.206678,-9.433155,-2.202665,3,71
-3.102885,-4.644751,-2.456451,3,71
0.282516,-9.251195,-0.933739,3,71
-3.20823,-4.711789,0.885855,3,71
2.418144,-8.571242,-1.675941,3,71
-5.861006,-6.397307,-3.375824,3,71
-1.120486,-5.803545,2.044648,3,72
-2.39899,-8.451532,4.055778,3,72
5.64074,-8.566454,1.029507,3,72
-0.8283940000000001,-0.483629,10.582372,3,72
4.491523,-7.393294999999999,-1.58975,3,72
4.97994,-10.127473,-14.422671,3,72
1.106121,-7.115567,2.240973,3,72
1.355118,-8.667010000000001,1.479617,3,72
2.149993,-7.474697,5.93762,3,72
8.288725999999999,-10.783484,-3.165135,3,72
-0.991199,-19.416977,4.074930999999999,3,72
7.062895,-8.063671000000001,-0.972046,3,72
0.766145,-4.788403,-0.981623,3,72
0.02873,-6.545747,-0.6464340000000001,3,72
6.952762,-11.247959,0.344765,3,72
6.895301,-13.982138,-2.504335,3,72
-1.417367,-19.349937,0.177171,3,72
0.320823,-3.715801,-9.653421,3,72
-4.649539,-15.05474,1.192313,3,72
4.242526,-16.539145,-10.836157,3,72
6.789956,-6.947972999999999,-3.007117,3,72
0.933739,-4.606444000000001,-0.512359,3,72
3.2896330000000003,-7.469908999999999,-0.0430959999999999,3,72
-1.6519990000000002,-17.535133,-2.2505490000000004,3,72
-6.320692,-6.196194,1.896208,3,72
-1.331176,-17.956512,-0.632069,3,72
12.133814,-18.703505,-7.508216,3,72
6.588842999999999,-10.568007,-2.60968,3,72
7.996633999999999,-5.918466,-6.646304,3,72
0.2585739999999999,-8.657434,-2.351106,3,72
2.652776,-5.865794,-3.227384,3,73
-0.737414,-3.86903,-1.4987700000000002,3,73
3.677494,-6.8761470000000005,-2.782062,3,73
0.612916,-3.744531,-0.507571,3,73
0.052672,-8.403648,-4.185065,3,73
-1.843535,-3.892972,-1.929727,3,73
0.665588,-6.809108999999999,-1.939303,3,73
-2.011129,-4.232949,-0.919373,3,73
2.432509,-10.304645,-1.671153,3,73
0.588974,-5.999869,-2.327164,3,73
1.431733,-8.27436,-1.73819,3,73
-1.7860740000000002,-7.996633,-3.3279400000000003,3,73
0.885855,-11.468226,5.544971,3,73
-0.770933,-21.74414,-3.605668,3,73
6.670246000000001,-13.206416,-4.611232,3,73
0.675165,-17.343597,-7.225700999999999,3,73
7.771578999999999,-8.580819,12.650962,3,73
3.873819,-6.162675,-6.210559,3,73
3.193865,-12.392388,2.5953150000000003,3,73
4.951209,-25.828648,-7.991845,3,73
7.484275,-14.887146,2.973599,3,73
4.797981,-19.560625,-9.227253,3,73
-0.933739,-9.188946,10.007763,3,73
4.347871,-7.354986999999999,-6.277597,3,73
5.061342,-13.785813,10.333375,3,73
2.499547,-4.788403,0.019154,3,73
5.923255,-18.195932,10.486604,3,73
2.5953150000000003,-7.762002000000001,-10.606314,3,73
-6.287173,-20.60929,-38.08696,3,73
1.4987700000000002,-14.719551999999998,-5.975927,3,73
-1.790863,-7.489063000000001,-1.848324,3,74
0.057461,-13.086706,0.981623,3,74
-0.402226,-12.028469,-3.117251,3,74
2.992752,-10.716447,0.426168,3,74
-1.125275,-4.180276,2.418144,3,74
4.094085,-6.933608,-4.3574470000000005,3,74
2.1787240000000003,-16.232687,-0.287304,3,74
0.761356,-19.2829,-0.842759,3,74
-7.254430999999999,-15.102624,-2.801216,3,74
0.588974,-22.117636,-28.031313,3,74
1.3982139999999998,-12.497733,-4.213794999999999,3,74
1.762132,-15.083470000000002,-7.560888999999999,3,74
5.185841,-13.52724,-2.365471,3,74
-1.474828,0.526724,0.038307,3,74
0.086191,-10.16578,-0.565032,3,74
0.052672,-17.745823,-3.203442,3,74
-7.939172,-14.302960999999998,-13.10586,3,74
-2.48997,-8.829816000000001,3.193865,3,74
0.871489,-11.013328,0.885855,3,74
2.686294,-8.963891,-3.883395,3,74
1.197101,-10.400413,-6.23929,3,74
-4.34787,-6.133945,-2.020706,3,74
1.714248,-11.219229,1.063026,3,74
-1.94888,-3.064578,-2.513912,3,74
1.225831,-5.5545480000000005,-2.317587,3,74
0.21069,-10.802638,-1.599327,3,74
2.738967,-8.657434,4.031836,3,74
4.094085,-11.401189,-0.651223,3,74
1.647211,-8.207322999999999,-8.537724,3,74
0.277727,-7.067683000000001,-4.893748,3,74
-6.904877000000001,-20.159178,-0.866701,3,75
-1.958457,-8.978256,-4.625597,3,75
0.196325,-2.643199,-0.114922,3,75
-1.728614,-4.9943040000000005,-1.192312,3,75
0.746991,-5.238512999999999,-1.043872,3,75
-1.197101,-3.68707,2.882619,3,75
-0.344765,-9.696517,0.679953,3,75
-5.386954,-16.323667999999998,4.266468,3,75
-3.787627,-8.633492,0.895431,3,75
-2.30801,-13.445837,-2.834735,3,75
-0.545878,-3.653552,6.670246000000001,3,75
2.844312,-10.486604,-1.580173,3,75
2.566584,-10.323798,-1.16837,3,75
2.63841,-7.168239999999999,-0.71826,3,75
3.907337,-4.984728,-3.821146,3,75
0.354342,-9.56723,-5.7700260000000005,3,75
0.9912,-10.290278,-5.099648999999999,3,75
-2.389413,-12.220005,-6.330269,3,75
-1.7860740000000002,-18.737022,6.244078,3,75
4.644751,-11.018116,-1.04866,3,75
-2.269703,-2.782062,2.39899,3,75
1.479617,-9.251195,-0.857124,3,75
5.152323,-11.702858,-2.27928,3,75
1.637634,-22.720974,-10.491392,3,75
-2.346318,-3.270479,1.063026,3,75
-1.685518,-7.580042,-1.623269,3,75
-1.80044,-7.465121000000001,-3.069367,3,75
-0.124498,-12.559982000000002,6.7516490000000005,3,75
1.7525560000000002,-17.501614,-3.801992,3,75
2.331953,-9.744401,-7.407660000000001,3,75
4.458004,-6.914453999999999,-5.401319,3,76
2.475605,-8.705316999999999,-0.3734949999999999,3,76
-1.120486,-5.803545,2.044648,3,76
-2.39899,-8.451532,4.055778,3,76
5.64074,-8.566454,1.029507,3,76
-0.8283940000000001,-0.483629,10.582372,3,76
4.491523,-7.393294999999999,-1.58975,3,76
4.97994,-10.127473,-14.422671,3,76
1.106121,-7.115567,2.240973,3,76
1.355118,-8.667010000000001,1.479617,3,76
2.149993,-7.474697,5.93762,3,76
8.288725999999999,-10.783484,-3.165135,3,76
-0.991199,-19.416977,4.074930999999999,3,76
7.062895,-8.063671000000001,-0.972046,3,76
0.766145,-4.788403,-0.981623,3,76
0.02873,-6.545747,-0.6464340000000001,3,76
6.952762,-11.247959,0.344765,3,76
6.895301,-13.982138,-2.504335,3,76
-1.417367,-19.349937,0.177171,3,76
0.320823,-3.715801,-9.653421,3,76
-4.649539,-15.05474,1.192313,3,76
4.242526,-16.539145,-10.836157,3,76
6.789956,-6.947972999999999,-3.007117,3,76
0.933739,-4.606444000000001,-0.512359,3,76
3.2896330000000003,-7.469908999999999,-0.0430959999999999,3,76
-1.6519990000000002,-17.535133,-2.2505490000000004,3,76
-6.320692,-6.196194,1.896208,3,76
-1.331176,-17.956512,-0.632069,3,76
12.133814,-18.703505,-7.508216,3,76
6.588842999999999,-10.568007,-2.60968,3,76
-6.287173,-20.60929,-38.08696,3,77
1.4987700000000002,-14.719551999999998,-5.975927,3,77
4.936844000000001,-19.177555,17.492037,3,77
5.00867,-9.591172,-1.522712,3,77
0.21069,-4.065354,1.5370780000000002,3,77
-0.47884,-12.210428,-0.301669,3,77
-0.153229,-10.213664,-1.7525560000000002,3,77
0.6272810000000001,-7.627927000000001,-3.270479,3,77
1.177947,-5.415684,-2.059013,3,77
3.466804,-5.406107,-2.633622,3,77
0.057461,-6.445191,-3.069367,3,77
5.88016,-6.900089,-3.509899,3,77
4.774039,-9.251195,-2.600103,3,77
0.766145,-4.089296,-0.833182,3,77
5.865794,-9.840169,-1.23062,3,77
-1.446098,-4.903325,-0.512359,3,77
2.600103,-7.929596000000001,0.5841850000000001,3,77
-1.766921,-5.295974,0.766145,3,77
0.430956,-7.699753,-0.579397,3,77
0.8475469999999999,-9.337387,-3.797204,3,77
-1.8579,-7.623138000000001,9.021352,3,77
0.272939,-11.860875,-2.920926,3,77
2.499547,-7.843405000000001,-3.620033,3,77
-4.76925,-9.648633,-12.382812,3,77
2.475605,-9.993398,-6.62715,3,77
2.748544,-6.9096660000000005,-3.39019,3,77
1.264139,-7.517792999999999,0.493206,3,77
-1.086968,-5.717354,2.499547,3,77
-2.614468,-8.508992999999998,-0.071826,3,77
-1.522712,-16.82645,-2.791639,3,77
1.273715,-6.502651,-3.572149,3,78
0.7230489999999999,-6.871359,-4.079719,3,78
2.226608,-7.575253999999999,-12.555194,3,78
3.284845,-11.96622,-3.892972,3,78
3.945645,-11.760319,-8.09719,3,78
2.801216,-9.32781,-5.133168,3,78
-1.35033,-3.380613,-0.057461,3,78
-0.253785,-6.373365,0.205901,3,78
-1.608903,-6.502651,-3.998317,3,78
1.685518,-10.146626,-1.115698,3,78
-0.474052,-4.13718,-1.249773,3,78
-0.761356,-9.203311,-2.178723,3,78
-1.278504,-4.1419690000000005,0.253785,3,78
-0.3304,-6.105214,-3.284845,3,78
1.455675,-7.479486,-3.864241,3,78
1.613692,-9.150639,-4.151545,3,78
1.216255,-9.792285,0.636858,3,78
-2.54743,-7.086836999999999,-2.585738,3,78
-1.206678,-9.433155,-2.202665,3,78
-3.102885,-4.644751,-2.456451,3,78
0.282516,-9.251195,-0.933739,3,78
-3.20823,-4.711789,0.885855,3,78
2.418144,-8.571242,-1.675941,3,78
-5.861006,-6.397307,-3.375824,3,78
2.959233,-6.081272,-3.136404,3,78
-7.805097,-8.365341,-2.130839,3,78
-0.842759,-6.119579,-1.61848,3,78
-1.814805,-7.259219,-1.043872,3,78
-0.617704,-6.301539,-1.067814,3,78
-1.685518,-8.403648,0.550666,3,78
-2.614468,-8.508992999999998,-0.071826,3,79
-1.522712,-16.82645,-2.791639,3,79
4.31914,-13.091495,-0.411803,3,79
0.430956,-15.255854,-5.688623000000001,3,79
5.061342,-14.508862,-22.663513,3,79
2.82037,-9.710882000000002,-3.806781,3,79
2.753332,-11.559206,-10.630256,3,79
0.9912,-8.935161,-0.1723829999999999,3,79
-3.600879,-3.524265,0.957681,3,79
-2.082955,-11.808203,0.229843,3,79
-1.8579,-4.3766,2.327164,3,79
-2.130839,-12.421119,-0.2585739999999999,3,79
-6.478708999999999,-20.39381,1.177947,3,79
0.35913,-22.716187,7.800308999999999,3,79
3.380613,-11.070788,-2.403778,3,79
2.806004,-10.754754,3.672706,3,79
-6.478708999999999,-22.16073,0.162806,3,79
5.272033,-25.546135,-8.652645,3,79
-2.264915,-17.348385,-2.834735,3,79
-7.426813,1.345541,-2.686294,3,79
-0.694318,-15.030798,-5.501875,3,79
-0.632069,-14.848839000000002,-11.224017,3,79
3.782839,-11.597513,-2.94008,3,79
-0.507571,-5.104438,-2.111686,3,79
1.369483,-4.520251999999999,-2.863465,3,79
2.494758,-11.36767,-2.255338,3,79
2.054225,-5.640739,1.56102,3,79
-2.662352,-8.145074000000001,-5.1666870000000005,3,79
-3.318364,-8.346186999999999,1.551443,3,79
2.236184,-10.175357,3.423709,3,79
1.177947,-5.415684,-2.059013,3,80
3.466804,-5.406107,-2.633622,3,80
0.057461,-6.445191,-3.069367,3,80
5.88016,-6.900089,-3.509899,3,80
4.774039,-9.251195,-2.600103,3,80
0.766145,-4.089296,-0.833182,3,80
5.865794,-9.840169,-1.23062,3,80
-1.446098,-4.903325,-0.512359,3,80
2.600103,-7.929596000000001,0.5841850000000001,3,80
-1.766921,-5.295974,0.766145,3,80
0.430956,-7.699753,-0.579397,3,80
0.8475469999999999,-9.337387,-3.797204,3,80
-1.8579,-7.623138000000001,9.021352,3,80
0.272939,-11.860875,-2.920926,3,80
2.499547,-7.843405000000001,-3.620033,3,80
-4.76925,-9.648633,-12.382812,3,80
2.475605,-9.993398,-6.62715,3,80
2.748544,-6.9096660000000005,-3.39019,3,80
1.264139,-7.517792999999999,0.493206,3,80
-1.086968,-5.717354,2.499547,3,80
-2.614468,-8.508992999999998,-0.071826,3,80
-1.522712,-16.82645,-2.791639,3,80
4.31914,-13.091495,-0.411803,3,80
0.430956,-15.255854,-5.688623000000001,3,80
5.061342,-14.508862,-22.663513,3,80
2.82037,-9.710882000000002,-3.806781,3,80
2.753332,-11.559206,-10.630256,3,80
0.9912,-8.935161,-0.1723829999999999,3,80
-3.600879,-3.524265,0.957681,3,80
-2.082955,-11.808203,0.229843,3,80
3.907337,-4.984728,-3.821146,3,81
0.354342,-9.56723,-5.7700260000000005,3,81
0.9912,-10.290278,-5.099648999999999,3,81
-2.389413,-12.220005,-6.330269,3,81
-1.7860740000000002,-18.737022,6.244078,3,81
4.644751,-11.018116,-1.04866,3,81
-2.269703,-2.782062,2.39899,3,81
1.479617,-9.251195,-0.857124,3,81
5.152323,-11.702858,-2.27928,3,81
1.637634,-22.720974,-10.491392,3,81
-2.346318,-3.270479,1.063026,3,81
-1.685518,-7.580042,-1.623269,3,81
-1.80044,-7.465121000000001,-3.069367,3,81
-0.124498,-12.559982000000002,6.7516490000000005,3,81
1.7525560000000002,-17.501614,-3.801992,3,81
2.331953,-9.744401,-7.407660000000001,3,81
3.222596,-8.920795,-3.08852,3,81
-3.457227,-2.715025,0.148441,3,81
2.264915,-9.931149,-4.659116,3,81
0.9912,-10.903194,-8.183380999999999,3,81
2.226608,-8.044516999999999,-2.341529,3,81
-1.647211,-11.851298,6.775591,3,81
8.39886,-13.771448,-2.566584,3,81
2.494758,-10.328587,-8.690952000000001,3,81
0.8236049999999999,-7.383717999999999,-3.5960910000000004,3,81
-6.224924,-12.23437,-26.230873,3,81
1.273715,-6.502651,-3.572149,3,81
0.7230489999999999,-6.871359,-4.079719,3,81
2.226608,-7.575253999999999,-12.555194,3,81
3.284845,-11.96622,-3.892972,3,81
1.383849,-16.093823999999998,-1.479617,3,82
1.771709,-13.642160999999998,-8.920795,3,82
1.024718,-5.295974,-1.484405,3,82
2.628834,-4.697424,-3.892972,3,82
2.422932,-4.544194,1.604115,3,82
-0.229843,-7.383717999999999,-6.809108999999999,3,82
2.949657,-13.354857,-3.998317,3,82
1.134852,-5.291186,-4.3766,3,82
-0.536301,-6.2153480000000005,-6.378153,3,82
2.48997,-7.809886,-3.672705,3,82
2.686294,-16.46732,-2.336741,3,82
2.5953150000000003,-15.524004,-2.437297,3,82
-6.186617,-13.532028,-3.155558,3,82
-0.536301,-11.386824,-12.243947,3,82
-5.228936,-7.862558,-3.323152,3,82
0.316035,-8.226476,-2.590526,3,82
1.01993,-9.423578,-5.741296,3,82
-0.6272810000000001,-8.944737,-6.315904,3,82
-1.082179,-5.779603,-0.483629,3,82
1.4604629999999998,-11.267113,-1.340753,3,82
-3.835511,-12.253524,8.130709,3,82
1.776498,-7.091625,0.636858,3,82
14.164097,-11.554418,5.99987,3,82
10.864887,-1.446098,5.295975,3,82
9.064447,-3.0502130000000003,15.011644,3,82
6.871359,-2.738967,11.865664,3,82
5.521029,-0.158017,10.16578,3,82
3.394978,0.0909799999999999,5.243302,3,82
2.499547,1.034295,8.508992999999998,3,82
-2.643199,1.848324,9.260772,3,82
2.336741,-11.722012,-1.321599,3,83
-6.1578870000000006,-1.489193,-0.54109,3,83
-6.904877000000001,-20.159178,-0.866701,3,83
-1.958457,-8.978256,-4.625597,3,83
0.196325,-2.643199,-0.114922,3,83
-1.728614,-4.9943040000000005,-1.192312,3,83
0.746991,-5.238512999999999,-1.043872,3,83
-1.197101,-3.68707,2.882619,3,83
-0.344765,-9.696517,0.679953,3,83
-5.386954,-16.323667999999998,4.266468,3,83
-3.787627,-8.633492,0.895431,3,83
-2.30801,-13.445837,-2.834735,3,83
-0.545878,-3.653552,6.670246000000001,3,83
2.844312,-10.486604,-1.580173,3,83
2.566584,-10.323798,-1.16837,3,83
2.63841,-7.168239999999999,-0.71826,3,83
3.907337,-4.984728,-3.821146,3,83
0.354342,-9.56723,-5.7700260000000005,3,83
0.9912,-10.290278,-5.099648999999999,3,83
-2.389413,-12.220005,-6.330269,3,83
-1.7860740000000002,-18.737022,6.244078,3,83
4.644751,-11.018116,-1.04866,3,83
-2.269703,-2.782062,2.39899,3,83
1.479617,-9.251195,-0.857124,3,83
5.152323,-11.702858,-2.27928,3,83
1.637634,-22.720974,-10.491392,3,83
-2.346318,-3.270479,1.063026,3,83
-1.685518,-7.580042,-1.623269,3,83
-1.80044,-7.465121000000001,-3.069367,3,83
-0.124498,-12.559982000000002,6.7516490000000005,3,83
2.930503,-8.51857,-2.236184,3,84
-0.943315,-0.943315,0.842759,3,84
-0.057461,-7.536947,-3.112462,3,84
-2.240973,-4.735731,-0.8044520000000001,3,84
0.483629,-8.561666,-3.653552,3,84
8.2169,-11.386824,-0.1005559999999999,3,84
-0.124498,-9.442732,-0.842759,3,84
2.657564,-10.381259,0.665588,3,84
1.383849,-16.093823999999998,-1.479617,3,84
1.771709,-13.642160999999998,-8.920795,3,84
1.024718,-5.295974,-1.484405,3,84
2.628834,-4.697424,-3.892972,3,84
2.422932,-4.544194,1.604115,3,84
-0.229843,-7.383717999999999,-6.809108999999999,3,84
2.949657,-13.354857,-3.998317,3,84
1.134852,-5.291186,-4.3766,3,84
-0.536301,-6.2153480000000005,-6.378153,3,84
2.48997,-7.809886,-3.672705,3,84
2.686294,-16.46732,-2.336741,3,84
2.5953150000000003,-15.524004,-2.437297,3,84
-6.186617,-13.532028,-3.155558,3,84
-0.536301,-11.386824,-12.243947,3,84
-5.228936,-7.862558,-3.323152,3,84
0.316035,-8.226476,-2.590526,3,84
1.01993,-9.423578,-5.741296,3,84
-0.6272810000000001,-8.944737,-6.315904,3,84
-1.082179,-5.779603,-0.483629,3,84
1.4604629999999998,-11.267113,-1.340753,3,84
-3.835511,-12.253524,8.130709,3,84
1.776498,-7.091625,0.636858,3,84
-1.695095,-2.48997,1.11091,3,85
-2.494758,-7.867347,-0.665588,3,85
-4.10845,-9.32781,0.21069,3,85
-4.223372,-17.922995,-4.654328,3,85
-8.825027,-12.411542,-3.476381,3,85
-3.557784,-5.492298,-0.1005559999999999,3,85
-3.998317,-14.302960999999998,-0.919373,3,85
-1.297657,-1.517924,-2.149993,3,85
-5.736507,-15.35641,-1.039083,3,85
1.024718,-3.825934,-3.1795,3,85
-1.94888,-14.389153,-3.08852,3,85
-3.203442,-1.072602,-0.071826,3,85
-6.842628,-6.809108999999999,-1.934515,3,85
-4.984728,-8.633492,-2.906561,3,85
-2.911349,-8.556877,-1.848324,3,85
-3.002329,-13.148955,0.646435,3,85
-5.06613,-9.428367,0.732626,3,85
-8.614338,-15.021221,-1.436521,3,85
0.349553,-6.5792660000000005,-6.995857000000001,3,85
-2.920926,-10.726024,-0.148441,3,85
-3.653552,-10.951078,-4.003105000000001,3,85
-9.332599,-18.492813,-6.440402,3,85
-5.755661,-13.891158,1.273715,3,85
-7.196969999999999,-11.358092999999998,1.685518,3,85
-10.036493,-12.765883,-0.6464340000000001,3,85
-0.158017,-2.930503,-7.479486,3,85
-2.604891,-7.661445,-0.11971,3,85
-1.40779,-13.340492,-3.916914,3,85
-2.255338,-14.398729,-2.801216,3,85
-7.517792999999999,-11.947066,-1.656788,3,85
2.475605,-9.993398,-6.62715,3,86
2.748544,-6.9096660000000005,-3.39019,3,86
1.264139,-7.517792999999999,0.493206,3,86
-1.086968,-5.717354,2.499547,3,86
-2.614468,-8.508992999999998,-0.071826,3,86
-1.522712,-16.82645,-2.791639,3,86
4.31914,-13.091495,-0.411803,3,86
0.430956,-15.255854,-5.688623000000001,3,86
5.061342,-14.508862,-22.663513,3,86
2.82037,-9.710882000000002,-3.806781,3,86
2.753332,-11.559206,-10.630256,3,86
0.9912,-8.935161,-0.1723829999999999,3,86
-3.600879,-3.524265,0.957681,3,86
-2.082955,-11.808203,0.229843,3,86
-1.8579,-4.3766,2.327164,3,86
-2.130839,-12.421119,-0.2585739999999999,3,86
-6.478708999999999,-20.39381,1.177947,3,86
0.35913,-22.716187,7.800308999999999,3,86
3.380613,-11.070788,-2.403778,3,86
2.806004,-10.754754,3.672706,3,86
-6.478708999999999,-22.16073,0.162806,3,86
5.272033,-25.546135,-8.652645,3,86
-2.264915,-17.348385,-2.834735,3,86
-7.426813,1.345541,-2.686294,3,86
-0.694318,-15.030798,-5.501875,3,86
-0.632069,-14.848839000000002,-11.224017,3,86
3.782839,-11.597513,-2.94008,3,86
-0.507571,-5.104438,-2.111686,3,86
1.369483,-4.520251999999999,-2.863465,3,86
2.494758,-11.36767,-2.255338,3,86
-0.057461,-7.536947,-3.112462,3,87
-2.240973,-4.735731,-0.8044520000000001,3,87
0.483629,-8.561666,-3.653552,3,87
8.2169,-11.386824,-0.1005559999999999,3,87
-0.124498,-9.442732,-0.842759,3,87
2.657564,-10.381259,0.665588,3,87
1.383849,-16.093823999999998,-1.479617,3,87
1.771709,-13.642160999999998,-8.920795,3,87
1.024718,-5.295974,-1.484405,3,87
2.628834,-4.697424,-3.892972,3,87
2.422932,-4.544194,1.604115,3,87
-0.229843,-7.383717999999999,-6.809108999999999,3,87
2.949657,-13.354857,-3.998317,3,87
1.134852,-5.291186,-4.3766,3,87
-0.536301,-6.2153480000000005,-6.378153,3,87
2.48997,-7.809886,-3.672705,3,87
2.686294,-16.46732,-2.336741,3,87
2.5953150000000003,-15.524004,-2.437297,3,87
-6.186617,-13.532028,-3.155558,3,87
-0.536301,-11.386824,-12.243947,3,87
-5.228936,-7.862558,-3.323152,3,87
0.316035,-8.226476,-2.590526,3,87
1.01993,-9.423578,-5.741296,3,87
-0.6272810000000001,-8.944737,-6.315904,3,87
-1.082179,-5.779603,-0.483629,3,87
1.4604629999999998,-11.267113,-1.340753,3,87
-3.835511,-12.253524,8.130709,3,87
1.776498,-7.091625,0.636858,3,87
14.164097,-11.554418,5.99987,3,87
10.864887,-1.446098,5.295975,3,87
2.959233,-6.081272,-3.136404,3,88
-7.805097,-8.365341,-2.130839,3,88
-0.842759,-6.119579,-1.61848,3,88
-1.814805,-7.259219,-1.043872,3,88
-0.617704,-6.301539,-1.067814,3,88
-1.685518,-8.403648,0.550666,3,88
2.48997,-15.964537,-0.8379709999999999,3,88
-0.483629,-15.078682,-6.253655,3,88
-2.633622,-17.927782,-5.453991,3,88
-2.312799,-15.825673000000002,9.706094,3,88
-0.6272810000000001,-14.772224,-5.3821650000000005,3,88
2.466028,-6.856992999999999,-4.477157,3,88
-4.67827,-6.397307,-3.993528,3,88
-1.838747,-9.935937,-3.1076740000000003,3,88
0.325611,-8.619126,-3.4428620000000003,3,88
-2.604891,-4.180276,-2.652775,3,88
-2.700659,-13.340492,-3.912125,3,88
1.642422,-8.130708,-8.681376,3,88
2.930503,-8.51857,-2.236184,3,88
-0.943315,-0.943315,0.842759,3,88
-0.057461,-7.536947,-3.112462,3,88
-2.240973,-4.735731,-0.8044520000000001,3,88
0.483629,-8.561666,-3.653552,3,88
8.2169,-11.386824,-0.1005559999999999,3,88
-0.124498,-9.442732,-0.842759,3,88
2.657564,-10.381259,0.665588,3,88
1.383849,-16.093823999999998,-1.479617,3,88
1.771709,-13.642160999999998,-8.920795,3,88
1.024718,-5.295974,-1.484405,3,88
2.628834,-4.697424,-3.892972,3,88
0.196325,-2.643199,-0.114922,3,89
-1.728614,-4.9943040000000005,-1.192312,3,89
0.746991,-5.238512999999999,-1.043872,3,89
-1.197101,-3.68707,2.882619,3,89
-0.344765,-9.696517,0.679953,3,89
-5.386954,-16.323667999999998,4.266468,3,89
-3.787627,-8.633492,0.895431,3,89
-2.30801,-13.445837,-2.834735,3,89
-0.545878,-3.653552,6.670246000000001,3,89
2.844312,-10.486604,-1.580173,3,89
2.566584,-10.323798,-1.16837,3,89
2.63841,-7.168239999999999,-0.71826,3,89
3.907337,-4.984728,-3.821146,3,89
0.354342,-9.56723,-5.7700260000000005,3,89
0.9912,-10.290278,-5.099648999999999,3,89
-2.389413,-12.220005,-6.330269,3,89
-1.7860740000000002,-18.737022,6.244078,3,89
4.644751,-11.018116,-1.04866,3,89
-2.269703,-2.782062,2.39899,3,89
1.479617,-9.251195,-0.857124,3,89
5.152323,-11.702858,-2.27928,3,89
1.637634,-22.720974,-10.491392,3,89
-2.346318,-3.270479,1.063026,3,89
-1.685518,-7.580042,-1.623269,3,89
-1.80044,-7.465121000000001,-3.069367,3,89
-0.124498,-12.559982000000002,6.7516490000000005,3,89
1.7525560000000002,-17.501614,-3.801992,3,89
2.331953,-9.744401,-7.407660000000001,3,89
3.222596,-8.920795,-3.08852,3,89
-3.457227,-2.715025,0.148441,3,89
7.11078,-7.972691,3.040636,3,90
-0.445322,-3.4811690000000004,1.225831,3,90
-1.790863,-7.489063000000001,-1.848324,3,90
0.057461,-13.086706,0.981623,3,90
-0.402226,-12.028469,-3.117251,3,90
2.992752,-10.716447,0.426168,3,90
-1.125275,-4.180276,2.418144,3,90
4.094085,-6.933608,-4.3574470000000005,3,90
2.1787240000000003,-16.232687,-0.287304,3,90
0.761356,-19.2829,-0.842759,3,90
-7.254430999999999,-15.102624,-2.801216,3,90
0.588974,-22.117636,-28.031313,3,90
1.3982139999999998,-12.497733,-4.213794999999999,3,90
1.762132,-15.083470000000002,-7.560888999999999,3,90
5.185841,-13.52724,-2.365471,3,90
-1.474828,0.526724,0.038307,3,90
0.086191,-10.16578,-0.565032,3,90
0.052672,-17.745823,-3.203442,3,90
-7.939172,-14.302960999999998,-13.10586,3,90
-2.48997,-8.829816000000001,3.193865,3,90
0.871489,-11.013328,0.885855,3,90
2.686294,-8.963891,-3.883395,3,90
1.197101,-10.400413,-6.23929,3,90
-4.34787,-6.133945,-2.020706,3,90
1.714248,-11.219229,1.063026,3,90
-1.94888,-3.064578,-2.513912,3,90
1.225831,-5.5545480000000005,-2.317587,3,90
0.21069,-10.802638,-1.599327,3,90
2.738967,-8.657434,4.031836,3,90
4.094085,-11.401189,-0.651223,3,90
3.529053,-7.436389999999999,1.905785,3,91
0.986411,-17.3005,-0.3830719999999999,3,91
-4.582502,-7.862558,9.792285,3,91
1.910573,-5.985504,-1.599327,3,91
4.458004,-6.914453999999999,-5.401319,3,91
2.475605,-8.705316999999999,-0.3734949999999999,3,91
-1.120486,-5.803545,2.044648,3,91
-2.39899,-8.451532,4.055778,3,91
5.64074,-8.566454,1.029507,3,91
-0.8283940000000001,-0.483629,10.582372,3,91
4.491523,-7.393294999999999,-1.58975,3,91
4.97994,-10.127473,-14.422671,3,91
1.106121,-7.115567,2.240973,3,91
1.355118,-8.667010000000001,1.479617,3,91
2.149993,-7.474697,5.93762,3,91
8.288725999999999,-10.783484,-3.165135,3,91
-0.991199,-19.416977,4.074930999999999,3,91
7.062895,-8.063671000000001,-0.972046,3,91
0.766145,-4.788403,-0.981623,3,91
0.02873,-6.545747,-0.6464340000000001,3,91
6.952762,-11.247959,0.344765,3,91
6.895301,-13.982138,-2.504335,3,91
-1.417367,-19.349937,0.177171,3,91
0.320823,-3.715801,-9.653421,3,91
-4.649539,-15.05474,1.192313,3,91
4.242526,-16.539145,-10.836157,3,91
6.789956,-6.947972999999999,-3.007117,3,91
0.933739,-4.606444000000001,-0.512359,3,91
3.2896330000000003,-7.469908999999999,-0.0430959999999999,3,91
-1.6519990000000002,-17.535133,-2.2505490000000004,3,91
-0.545878,-3.653552,6.670246000000001,3,92
2.844312,-10.486604,-1.580173,3,92
2.566584,-10.323798,-1.16837,3,92
2.63841,-7.168239999999999,-0.71826,3,92
3.907337,-4.984728,-3.821146,3,92
0.354342,-9.56723,-5.7700260000000005,3,92
0.9912,-10.290278,-5.099648999999999,3,92
-2.389413,-12.220005,-6.330269,3,92
-1.7860740000000002,-18.737022,6.244078,3,92
4.644751,-11.018116,-1.04866,3,92
-2.269703,-2.782062,2.39899,3,92
1.479617,-9.251195,-0.857124,3,92
5.152323,-11.702858,-2.27928,3,92
1.637634,-22.720974,-10.491392,3,92
-2.346318,-3.270479,1.063026,3,92
-1.685518,-7.580042,-1.623269,3,92
-1.80044,-7.465121000000001,-3.069367,3,92
-0.124498,-12.559982000000002,6.7516490000000005,3,92
1.7525560000000002,-17.501614,-3.801992,3,92
2.331953,-9.744401,-7.407660000000001,3,92
3.222596,-8.920795,-3.08852,3,92
-3.457227,-2.715025,0.148441,3,92
2.264915,-9.931149,-4.659116,3,92
0.9912,-10.903194,-8.183380999999999,3,92
2.226608,-8.044516999999999,-2.341529,3,92
-1.647211,-11.851298,6.775591,3,92
8.39886,-13.771448,-2.566584,3,92
2.494758,-10.328587,-8.690952000000001,3,92
0.8236049999999999,-7.383717999999999,-3.5960910000000004,3,92
-6.224924,-12.23437,-26.230873,3,92
3.677494,-6.8761470000000005,-2.782062,3,93
0.612916,-3.744531,-0.507571,3,93
0.052672,-8.403648,-4.185065,3,93
-1.843535,-3.892972,-1.929727,3,93
0.665588,-6.809108999999999,-1.939303,3,93
-2.011129,-4.232949,-0.919373,3,93
2.432509,-10.304645,-1.671153,3,93
0.588974,-5.999869,-2.327164,3,93
1.431733,-8.27436,-1.73819,3,93
-1.7860740000000002,-7.996633,-3.3279400000000003,3,93
0.885855,-11.468226,5.544971,3,93
-0.770933,-21.74414,-3.605668,3,93
6.670246000000001,-13.206416,-4.611232,3,93
0.675165,-17.343597,-7.225700999999999,3,93
7.771578999999999,-8.580819,12.650962,3,93
3.873819,-6.162675,-6.210559,3,93
3.193865,-12.392388,2.5953150000000003,3,93
4.951209,-25.828648,-7.991845,3,93
7.484275,-14.887146,2.973599,3,93
4.797981,-19.560625,-9.227253,3,93
-0.933739,-9.188946,10.007763,3,93
4.347871,-7.354986999999999,-6.277597,3,93
5.061342,-13.785813,10.333375,3,93
2.499547,-4.788403,0.019154,3,93
5.923255,-18.195932,10.486604,3,93
2.5953150000000003,-7.762002000000001,-10.606314,3,93
-6.287173,-20.60929,-38.08696,3,93
1.4987700000000002,-14.719551999999998,-5.975927,3,93
4.936844000000001,-19.177555,17.492037,3,93
5.00867,-9.591172,-1.522712,3,93
-1.101333,-13.939042,-0.948104,3,94
1.532289,-6.2153480000000005,-5.928043,3,94
2.652776,-5.865794,-3.227384,3,94
-0.737414,-3.86903,-1.4987700000000002,3,94
3.677494,-6.8761470000000005,-2.782062,3,94
0.612916,-3.744531,-0.507571,3,94
0.052672,-8.403648,-4.185065,3,94
-1.843535,-3.892972,-1.929727,3,94
0.665588,-6.809108999999999,-1.939303,3,94
-2.011129,-4.232949,-0.919373,3,94
2.432509,-10.304645,-1.671153,3,94
0.588974,-5.999869,-2.327164,3,94
1.431733,-8.27436,-1.73819,3,94
-1.7860740000000002,-7.996633,-3.3279400000000003,3,94
0.885855,-11.468226,5.544971,3,94
-0.770933,-21.74414,-3.605668,3,94
6.670246000000001,-13.206416,-4.611232,3,94
0.675165,-17.343597,-7.225700999999999,3,94
7.771578999999999,-8.580819,12.650962,3,94
3.873819,-6.162675,-6.210559,3,94
3.193865,-12.392388,2.5953150000000003,3,94
4.951209,-25.828648,-7.991845,3,94
7.484275,-14.887146,2.973599,3,94
4.797981,-19.560625,-9.227253,3,94
-0.933739,-9.188946,10.007763,3,94
4.347871,-7.354986999999999,-6.277597,3,94
5.061342,-13.785813,10.333375,3,94
2.499547,-4.788403,0.019154,3,94
5.923255,-18.195932,10.486604,3,94
2.5953150000000003,-7.762002000000001,-10.606314,3,94
2.432509,-10.304645,-1.671153,3,95
0.588974,-5.999869,-2.327164,3,95
1.431733,-8.27436,-1.73819,3,95
-1.7860740000000002,-7.996633,-3.3279400000000003,3,95
0.885855,-11.468226,5.544971,3,95
-0.770933,-21.74414,-3.605668,3,95
6.670246000000001,-13.206416,-4.611232,3,95
0.675165,-17.343597,-7.225700999999999,3,95
7.771578999999999,-8.580819,12.650962,3,95
3.873819,-6.162675,-6.210559,3,95
3.193865,-12.392388,2.5953150000000003,3,95
4.951209,-25.828648,-7.991845,3,95
7.484275,-14.887146,2.973599,3,95
4.797981,-19.560625,-9.227253,3,95
-0.933739,-9.188946,10.007763,3,95
4.347871,-7.354986999999999,-6.277597,3,95
5.061342,-13.785813,10.333375,3,95
2.499547,-4.788403,0.019154,3,95
5.923255,-18.195932,10.486604,3,95
2.5953150000000003,-7.762002000000001,-10.606314,3,95
-6.287173,-20.60929,-38.08696,3,95
1.4987700000000002,-14.719551999999998,-5.975927,3,95
4.936844000000001,-19.177555,17.492037,3,95
5.00867,-9.591172,-1.522712,3,95
0.21069,-4.065354,1.5370780000000002,3,95
-0.47884,-12.210428,-0.301669,3,95
-0.153229,-10.213664,-1.7525560000000002,3,95
0.6272810000000001,-7.627927000000001,-3.270479,3,95
1.177947,-5.415684,-2.059013,3,95
3.466804,-5.406107,-2.633622,3,95
3.945645,-11.760319,-8.09719,3,96
2.801216,-9.32781,-5.133168,3,96
-1.35033,-3.380613,-0.057461,3,96
-0.253785,-6.373365,0.205901,3,96
-1.608903,-6.502651,-3.998317,3,96
1.685518,-10.146626,-1.115698,3,96
-0.474052,-4.13718,-1.249773,3,96
-0.761356,-9.203311,-2.178723,3,96
-1.278504,-4.1419690000000005,0.253785,3,96
-0.3304,-6.105214,-3.284845,3,96
1.455675,-7.479486,-3.864241,3,96
1.613692,-9.150639,-4.151545,3,96
1.216255,-9.792285,0.636858,3,96
-2.54743,-7.086836999999999,-2.585738,3,96
-1.206678,-9.433155,-2.202665,3,96
-3.102885,-4.644751,-2.456451,3,96
0.282516,-9.251195,-0.933739,3,96
-3.20823,-4.711789,0.885855,3,96
2.418144,-8.571242,-1.675941,3,96
-5.861006,-6.397307,-3.375824,3,96
2.959233,-6.081272,-3.136404,3,96
-7.805097,-8.365341,-2.130839,3,96
-0.842759,-6.119579,-1.61848,3,96
-1.814805,-7.259219,-1.043872,3,96
-0.617704,-6.301539,-1.067814,3,96
-1.685518,-8.403648,0.550666,3,96
2.48997,-15.964537,-0.8379709999999999,3,96
-0.483629,-15.078682,-6.253655,3,96
-2.633622,-17.927782,-5.453991,3,96
-2.312799,-15.825673000000002,9.706094,3,96
2.499547,-7.843405000000001,-3.620033,3,97
-4.76925,-9.648633,-12.382812,3,97
2.475605,-9.993398,-6.62715,3,97
2.748544,-6.9096660000000005,-3.39019,3,97
1.264139,-7.517792999999999,0.493206,3,97
-1.086968,-5.717354,2.499547,3,97
-2.614468,-8.508992999999998,-0.071826,3,97
-1.522712,-16.82645,-2.791639,3,97
4.31914,-13.091495,-0.411803,3,97
0.430956,-15.255854,-5.688623000000001,3,97
5.061342,-14.508862,-22.663513,3,97
2.82037,-9.710882000000002,-3.806781,3,97
2.753332,-11.559206,-10.630256,3,97
0.9912,-8.935161,-0.1723829999999999,3,97
-3.600879,-3.524265,0.957681,3,97
-2.082955,-11.808203,0.229843,3,97
-1.8579,-4.3766,2.327164,3,97
-2.130839,-12.421119,-0.2585739999999999,3,97
-6.478708999999999,-20.39381,1.177947,3,97
0.35913,-22.716187,7.800308999999999,3,97
3.380613,-11.070788,-2.403778,3,97
2.806004,-10.754754,3.672706,3,97
-6.478708999999999,-22.16073,0.162806,3,97
5.272033,-25.546135,-8.652645,3,97
-2.264915,-17.348385,-2.834735,3,97
-7.426813,1.345541,-2.686294,3,97
-0.694318,-15.030798,-5.501875,3,97
-0.632069,-14.848839000000002,-11.224017,3,97
3.782839,-11.597513,-2.94008,3,97
-0.507571,-5.104438,-2.111686,3,97
6.301539,-1.154005,0.067038,3,98
4.534618,-5.755661,-1.369483,3,98
4.563349,-3.730166000000001,-0.02873,3,98
-0.972046,-6.660669,-2.954445,3,98
-2.8682540000000003,-5.4970870000000005,0.23942,3,98
2.767697,-4.932055,0.110133,3,98
2.470816,-7.718906,2.949657,3,98
4.941633,-6.833050999999999,-1.6998830000000005,3,98
1.1683709999999998,-9.816227,1.910573,3,98
8.073248,-5.856217,-1.359906,3,98
3.366248,-16.82645,1.1683709999999998,3,98
7.015011,-16.845604,-7.517792999999999,3,98
4.697424,-9.074024,-0.866701,3,98
-1.5466540000000002,-1.508347,0.3304,3,98
3.830723,-12.014104,-1.158794,3,98
2.418144,-9.002198,0.8236049999999999,3,98
3.529053,-7.436389999999999,1.905785,3,98
0.986411,-17.3005,-0.3830719999999999,3,98
-4.582502,-7.862558,9.792285,3,98
1.910573,-5.985504,-1.599327,3,98
4.458004,-6.914453999999999,-5.401319,3,98
2.475605,-8.705316999999999,-0.3734949999999999,3,98
-1.120486,-5.803545,2.044648,3,98
-2.39899,-8.451532,4.055778,3,98
5.64074,-8.566454,1.029507,3,98
-0.8283940000000001,-0.483629,10.582372,3,98
4.491523,-7.393294999999999,-1.58975,3,98
4.97994,-10.127473,-14.422671,3,98
1.106121,-7.115567,2.240973,3,98
1.355118,-8.667010000000001,1.479617,3,98
7.771578999999999,-8.580819,12.650962,3,99
3.873819,-6.162675,-6.210559,3,99
3.193865,-12.392388,2.5953150000000003,3,99
4.951209,-25.828648,-7.991845,3,99
7.484275,-14.887146,2.973599,3,99
4.797981,-19.560625,-9.227253,3,99
-0.933739,-9.188946,10.007763,3,99
4.347871,-7.354986999999999,-6.277597,3,99
5.061342,-13.785813,10.333375,3,99
2.499547,-4.788403,0.019154,3,99
5.923255,-18.195932,10.486604,3,99
2.5953150000000003,-7.762002000000001,-10.606314,3,99
-6.287173,-20.60929,-38.08696,3,99
1.4987700000000002,-14.719551999999998,-5.975927,3,99
4.936844000000001,-19.177555,17.492037,3,99
5.00867,-9.591172,-1.522712,3,99
0.21069,-4.065354,1.5370780000000002,3,99
-0.47884,-12.210428,-0.301669,3,99
-0.153229,-10.213664,-1.7525560000000002,3,99
0.6272810000000001,-7.627927000000001,-3.270479,3,99
1.177947,-5.415684,-2.059013,3,99
3.466804,-5.406107,-2.633622,3,99
0.057461,-6.445191,-3.069367,3,99
5.88016,-6.900089,-3.509899,3,99
4.774039,-9.251195,-2.600103,3,99
0.766145,-4.089296,-0.833182,3,99
5.865794,-9.840169,-1.23062,3,99
-1.446098,-4.903325,-0.512359,3,99
2.600103,-7.929596000000001,0.5841850000000001,3,99
-1.766921,-5.295974,0.766145,3,99
1.455675,-7.479486,-3.864241,3,100
1.613692,-9.150639,-4.151545,3,100
1.216255,-9.792285,0.636858,3,100
-2.54743,-7.086836999999999,-2.585738,3,100
-1.206678,-9.433155,-2.202665,3,100
-3.102885,-4.644751,-2.456451,3,100
0.282516,-9.251195,-0.933739,3,100
-3.20823,-4.711789,0.885855,3,100
2.418144,-8.571242,-1.675941,3,100
-5.861006,-6.397307,-3.375824,3,100
2.959233,-6.081272,-3.136404,3,100
-7.805097,-8.365341,-2.130839,3,100
-0.842759,-6.119579,-1.61848,3,100
-1.814805,-7.259219,-1.043872,3,100
-0.617704,-6.301539,-1.067814,3,100
-1.685518,-8.403648,0.550666,3,100
2.48997,-15.964537,-0.8379709999999999,3,100
-0.483629,-15.078682,-6.253655,3,100
-2.633622,-17.927782,-5.453991,3,100
-2.312799,-15.825673000000002,9.706094,3,100
-0.6272810000000001,-14.772224,-5.3821650000000005,3,100
2.466028,-6.856992999999999,-4.477157,3,100
-4.67827,-6.397307,-3.993528,3,100
-1.838747,-9.935937,-3.1076740000000003,3,100
0.325611,-8.619126,-3.4428620000000003,3,100
-2.604891,-4.180276,-2.652775,3,100
-2.700659,-13.340492,-3.912125,3,100
1.642422,-8.130708,-8.681376,3,100
2.930503,-8.51857,-2.236184,3,100
-0.943315,-0.943315,0.842759,3,100
-0.402226,-12.028469,-3.117251,3,101
2.992752,-10.716447,0.426168,3,101
-1.125275,-4.180276,2.418144,3,101
4.094085,-6.933608,-4.3574470000000005,3,101
2.1787240000000003,-16.232687,-0.287304,3,101
0.761356,-19.2829,-0.842759,3,101
-7.254430999999999,-15.102624,-2.801216,3,101
0.588974,-22.117636,-28.031313,3,101
1.3982139999999998,-12.497733,-4.213794999999999,3,101
1.762132,-15.083470000000002,-7.560888999999999,3,101
5.185841,-13.52724,-2.365471,3,101
-1.474828,0.526724,0.038307,3,101
0.086191,-10.16578,-0.565032,3,101
0.052672,-17.745823,-3.203442,3,101
-7.939172,-14.302960999999998,-13.10586,3,101
-2.48997,-8.829816000000001,3.193865,3,101
0.871489,-11.013328,0.885855,3,101
2.686294,-8.963891,-3.883395,3,101
1.197101,-10.400413,-6.23929,3,101
-4.34787,-6.133945,-2.020706,3,101
1.714248,-11.219229,1.063026,3,101
-1.94888,-3.064578,-2.513912,3,101
1.225831,-5.5545480000000005,-2.317587,3,101
0.21069,-10.802638,-1.599327,3,101
2.738967,-8.657434,4.031836,3,101
4.094085,-11.401189,-0.651223,3,101
1.647211,-8.207322999999999,-8.537724,3,101
0.277727,-7.067683000000001,-4.893748,3,101
1.364695,-8.528147,-6.382941000000001,3,101
9.141062,-9.184157,0.42138,3,101
-1.608903,-6.502651,-3.998317,3,102
1.685518,-10.146626,-1.115698,3,102
-0.474052,-4.13718,-1.249773,3,102
-0.761356,-9.203311,-2.178723,3,102
-1.278504,-4.1419690000000005,0.253785,3,102
-0.3304,-6.105214,-3.284845,3,102
1.455675,-7.479486,-3.864241,3,102
1.613692,-9.150639,-4.151545,3,102
1.216255,-9.792285,0.636858,3,102
-2.54743,-7.086836999999999,-2.585738,3,102
-1.206678,-9.433155,-2.202665,3,102
-3.102885,-4.644751,-2.456451,3,102
0.282516,-9.251195,-0.933739,3,102
-3.20823,-4.711789,0.885855,3,102
2.418144,-8.571242,-1.675941,3,102
-5.861006,-6.397307,-3.375824,3,102
2.959233,-6.081272,-3.136404,3,102
-7.805097,-8.365341,-2.130839,3,102
-0.842759,-6.119579,-1.61848,3,102
-1.814805,-7.259219,-1.043872,3,102
-0.617704,-6.301539,-1.067814,3,102
-1.685518,-8.403648,0.550666,3,102
2.48997,-15.964537,-0.8379709999999999,3,102
-0.483629,-15.078682,-6.253655,3,102
-2.633622,-17.927782,-5.453991,3,102
-2.312799,-15.825673000000002,9.706094,3,102
-0.6272810000000001,-14.772224,-5.3821650000000005,3,102
2.466028,-6.856992999999999,-4.477157,3,102
-4.67827,-6.397307,-3.993528,3,102
-1.838747,-9.935937,-3.1076740000000003,3,102
-6.842628,-6.809108999999999,-1.934515,3,103
-4.984728,-8.633492,-2.906561,3,103
-2.911349,-8.556877,-1.848324,3,103
-3.002329,-13.148955,0.646435,3,103
-5.06613,-9.428367,0.732626,3,103
-8.614338,-15.021221,-1.436521,3,103
0.349553,-6.5792660000000005,-6.995857000000001,3,103
-2.920926,-10.726024,-0.148441,3,103
-3.653552,-10.951078,-4.003105000000001,3,103
-9.332599,-18.492813,-6.440402,3,103
-5.755661,-13.891158,1.273715,3,103
-7.196969999999999,-11.358092999999998,1.685518,3,103
-10.036493,-12.765883,-0.6464340000000001,3,103
-0.158017,-2.930503,-7.479486,3,103
-2.604891,-7.661445,-0.11971,3,103
-1.40779,-13.340492,-3.916914,3,103
-2.255338,-14.398729,-2.801216,3,103
-7.517792999999999,-11.947066,-1.656788,3,103
-1.996764,1.393425,2.652776,3,103
-4.189853,-10.275913,1.1300629999999998,3,103
0.8379709999999999,-11.693281,-1.1300629999999998,3,103
-3.122039,-11.985373,-1.393425,3,103
-2.078167,-4.209007,-1.244985,3,103
-1.877054,-6.943185000000001,-1.915361,3,103
-5.473145,-10.730812,-1.077391,3,103
2.987964,-5.018246,1.647211,3,103
0.675165,-11.60709,-2.662352,3,103
-1.278504,-2.700659,0.924162,3,103
-4.424484,-10.726024,-1.082179,3,103
0.646435,-0.641646,-1.04866,3,103
-5.736507,-15.35641,-1.039083,3,104
1.024718,-3.825934,-3.1795,3,104
-1.94888,-14.389153,-3.08852,3,104
-3.203442,-1.072602,-0.071826,3,104
-6.842628,-6.809108999999999,-1.934515,3,104
-4.984728,-8.633492,-2.906561,3,104
-2.911349,-8.556877,-1.848324,3,104
-3.002329,-13.148955,0.646435,3,104
-5.06613,-9.428367,0.732626,3,104
-8.614338,-15.021221,-1.436521,3,104
0.349553,-6.5792660000000005,-6.995857000000001,3,104
-2.920926,-10.726024,-0.148441,3,104
-3.653552,-10.951078,-4.003105000000001,3,104
-9.332599,-18.492813,-6.440402,3,104
-5.755661,-13.891158,1.273715,3,104
-7.196969999999999,-11.358092999999998,1.685518,3,104
-10.036493,-12.765883,-0.6464340000000001,3,104
-0.158017,-2.930503,-7.479486,3,104
-2.604891,-7.661445,-0.11971,3,104
-1.40779,-13.340492,-3.916914,3,104
-2.255338,-14.398729,-2.801216,3,104
-7.517792999999999,-11.947066,-1.656788,3,104
-1.996764,1.393425,2.652776,3,104
-4.189853,-10.275913,1.1300629999999998,3,104
0.8379709999999999,-11.693281,-1.1300629999999998,3,104
-3.122039,-11.985373,-1.393425,3,104
-2.078167,-4.209007,-1.244985,3,104
-1.877054,-6.943185000000001,-1.915361,3,104
-5.473145,-10.730812,-1.077391,3,104
2.987964,-5.018246,1.647211,3,104
1.431733,-8.27436,-1.73819,3,105
-1.7860740000000002,-7.996633,-3.3279400000000003,3,105
0.885855,-11.468226,5.544971,3,105
-0.770933,-21.74414,-3.605668,3,105
6.670246000000001,-13.206416,-4.611232,3,105
0.675165,-17.343597,-7.225700999999999,3,105
7.771578999999999,-8.580819,12.650962,3,105
3.873819,-6.162675,-6.210559,3,105
3.193865,-12.392388,2.5953150000000003,3,105
4.951209,-25.828648,-7.991845,3,105
7.484275,-14.887146,2.973599,3,105
4.797981,-19.560625,-9.227253,3,105
-0.933739,-9.188946,10.007763,3,105
4.347871,-7.354986999999999,-6.277597,3,105
5.061342,-13.785813,10.333375,3,105
2.499547,-4.788403,0.019154,3,105
5.923255,-18.195932,10.486604,3,105
2.5953150000000003,-7.762002000000001,-10.606314,3,105
-6.287173,-20.60929,-38.08696,3,105
1.4987700000000002,-14.719551999999998,-5.975927,3,105
4.936844000000001,-19.177555,17.492037,3,105
5.00867,-9.591172,-1.522712,3,105
0.21069,-4.065354,1.5370780000000002,3,105
-0.47884,-12.210428,-0.301669,3,105
-0.153229,-10.213664,-1.7525560000000002,3,105
0.6272810000000001,-7.627927000000001,-3.270479,3,105
1.177947,-5.415684,-2.059013,3,105
3.466804,-5.406107,-2.633622,3,105
0.057461,-6.445191,-3.069367,3,105
5.88016,-6.900089,-3.509899,3,105
0.282516,-9.251195,-0.933739,3,106
-3.20823,-4.711789,0.885855,3,106
2.418144,-8.571242,-1.675941,3,106
-5.861006,-6.397307,-3.375824,3,106
2.959233,-6.081272,-3.136404,3,106
-7.805097,-8.365341,-2.130839,3,106
-0.842759,-6.119579,-1.61848,3,106
-1.814805,-7.259219,-1.043872,3,106
-0.617704,-6.301539,-1.067814,3,106
-1.685518,-8.403648,0.550666,3,106
2.48997,-15.964537,-0.8379709999999999,3,106
-0.483629,-15.078682,-6.253655,3,106
